timestamp_ms,ax,ay,az
1765068474688,-4.3541526,-13.4547238,-0.6668522
1765068474729,-0.9022117999999999,-10.2381426,-1.1375714
1765068474735,-1.0198916,-10.2381426,-1.3729310000000001
1765068474741,-1.0198916,-10.2381426,-1.3729310000000001
1765068474747,-1.2160246,-10.2381426,-1.4513842
1765068474753,-1.6082906,-11.6895268,-1.3729310000000001
1765068474759,-1.6082906,-11.6895268,-1.3729310000000001
1765068474765,-1.2944778,-13.0232312,-1.6867438000000001
1765068474771,-1.2944778,-13.0232312,-1.6867438000000001
1765068474777,-0.784532,-12.003339599999999,-1.7259703999999998
1765068474783,-0.196133,-10.6696352,-2.4320492
1765068474789,-0.196133,-10.6696352,-2.4320492
1765068474795,0.43149259999999995,-10.198916,-2.6281822
1765068474801,0.43149259999999995,-10.198916,-2.6281822
1765068474807,0.4707192,-10.5127288,-2.3928225999999997
1765068474813,-0.7060788,-10.3558224,-2.3143694
1765068474819,-0.7060788,-10.3558224,-2.3143694
1765068474825,-1.0983448,-8.669078599999999,-2.4712758
1765068474831,-1.0983448,-8.669078599999999,-2.4712758
1765068474837,-0.9022117999999999,-8.0022264,-2.549729
1765068474843,-0.7453053999999999,-7.1000146,-2.549729
1765068474883,-0.784532,-4.3541526,-1.96133
1765068474889,-0.43149259999999995,-2.549729,-1.8044235999999998
1765068474895,0.5883989999999999,-2.4320492,-2.0005566
1765068474901,0.5883989999999999,-2.4320492,-2.0005566
1765068474907,1.4121576,-3.726527,-1.8436502
1765068474913,1.4121576,-3.726527,-1.8436502
1765068474919,2.7850886,-6.1978028,-2.3143694
1765068474925,4.746418599999999,-8.4729456,-2.9812215999999996
1765068474931,4.746418599999999,-8.4729456,-2.9812215999999996
1765068474937,4.314926,-11.2972608,-3.4127142
1765068474943,4.314926,-11.2972608,-3.4127142
1765068474949,3.6088471999999996,-12.3956056,-4.2756994
1765068474955,2.6674088,-12.1210194,-4.6679654
1765068474961,2.6674088,-12.1210194,-4.6679654
1765068474967,1.6082906,-12.9840046,-4.5502856
1765068474973,1.6082906,-12.9840046,-4.5502856
1765068474979,0.0784532,-12.4740588,-4.8640984
1765068474985,-1.569064,-12.003339599999999,-4.9817782
1765068474991,-1.569064,-12.003339599999999,-4.9817782
1765068474997,-3.0204481999999997,-13.1016844,-4.6679654
1765068475038,-6.001669799999999,-10.002782999999999,-3.0989014
1765068475044,-6.001669799999999,-10.002782999999999,-3.0989014
1765068475050,-6.001669799999999,-9.492837199999999,-2.7850886
1765068475056,-6.001669799999999,-9.492837199999999,-2.7850886
1765068475062,-5.7663101999999995,-9.492837199999999,-2.5105024
1765068475068,-5.6094038,-8.5513988,-2.4712758
1765068475074,-5.6094038,-8.5513988,-2.4712758
1765068475080,-4.8640984,-8.8652116,-2.4320492
1765068475086,-4.8640984,-8.8652116,-2.4320492
1765068475092,-3.8049801999999997,-9.218251,-2.549729
1765068475098,-3.2165812,-9.924329799999999,-2.4712758
1765068475104,-3.2165812,-9.924329799999999,-2.4712758
1765068475110,-3.5696205999999995,-10.5127288,-2.3928225999999997
1765068475116,-3.5696205999999995,-10.5127288,-2.3928225999999997
1765068475122,-4.5895122,-10.5519554,-3.2558078
1765068475128,-5.4132708,-10.198916,-2.9027684
1765068475134,-5.4132708,-10.198916,-2.9027684
1765068475140,-7.5315072,-9.6889702,-2.8635417999999997
1765068475146,-7.5315072,-9.6889702,-2.8635417999999997
1765068475152,-6.7469752000000005,-8.825985,-3.0204481999999997
1765068475192,-5.1779112,-11.3364874,-3.0989014
1765068475198,-4.903325,-10.4735022,-3.1773545999999997
1765068475204,-4.903325,-10.4735022,-3.1773545999999997
1765068475210,-3.0989014,-9.8851032,-3.2558078
1765068475216,-3.0989014,-9.8851032,-3.2558078
1765068475222,-3.4519407999999996,-10.198916,-2.4320492
1765068475228,-3.4519407999999996,-10.198916,-2.4320492
1765068475234,-3.7657536,-9.1790244,-2.549729
1765068475240,-4.0403398,-8.7083052,-3.138128
1765068475246,-4.0403398,-8.7083052,-3.138128
1765068475252,-2.8635417999999997,-9.2574776,-3.2558078
1765068475258,-2.8635417999999997,-9.2574776,-3.2558078
1765068475264,-2.3143694,-9.7281968,-3.0204481999999997
1765068475270,-3.6480737999999997,-10.5519554,-2.7066354
1765068475276,-3.6480737999999997,-10.5519554,-2.7066354
1765068475282,-5.4132708,-10.1204628,-2.549729
1765068475288,-5.4132708,-10.1204628,-2.549729
1765068475294,-5.3740442,-10.7480884,-2.5889556
1765068475300,-6.786201800000001,-11.6895268,-2.1966896
1765068475306,-6.786201800000001,-11.6895268,-2.1966896
1765068475347,-3.0596748,-9.2574776,-1.8828768
1765068475353,-2.5889556,-8.5513988,-1.4513842
1765068475359,-2.5889556,-8.5513988,-1.4513842
1765068475365,-2.7066354,-8.9436648,-1.0983448
1765068475371,-2.7066354,-8.9436648,-1.0983448
1765068475377,-3.2558078,-8.825985,-0.7060788
1765068475383,-3.6480737999999997,-9.4536106,-0.43149259999999995
1765068475389,-3.6480737999999997,-9.4536106,-0.43149259999999995
1765068475395,-4.3933792,-10.1204628,-0.2353596
1765068475401,-4.3933792,-10.1204628,-0.2353596
1765068475407,-4.707191999999999,-10.6304086,-0.6276256
1765068475413,-3.726527,-10.395049,-1.1767979999999998
1765068475419,-3.726527,-10.395049,-1.1767979999999998
1765068475425,-3.3734876000000003,-9.8851032,-1.3337044
1765068475431,-3.3734876000000003,-9.8851032,-1.3337044
1765068475437,-3.5696205999999995,-12.1994726,-0.5491724
1765068475443,-3.0596748,-9.5320638,-0.7453053999999999
1765068475449,-3.0596748,-9.5320638,-0.7453053999999999
1765068475455,-4.5895122,-7.3746008,-0.5491724
1765068475461,-4.5895122,-7.3746008,-0.5491724
1765068475501,-4.6287388,-6.864655,-0.6668522
1765068475507,-4.4718324,-7.3746008,-1.2160246
1765068475513,-3.8049801999999997,-6.3154826,-1.96133
1765068475519,-3.8049801999999997,-6.3154826,-1.96133
1765068475525,-3.6480737999999997,-6.3154826,-2.2359162
1765068475531,-3.6480737999999997,-6.3154826,-2.2359162
1765068475537,-2.8243152,-8.0806796,-1.6082906
1765068475543,-2.8243152,-8.0806796,-1.6082906
1765068475549,-2.5889556,-7.84532,-1.4121576
1765068475555,-3.726527,-6.982334799999999,-1.4906107999999998
1765068475561,-3.726527,-6.982334799999999,-1.4906107999999998
1765068475567,-3.4519407999999996,-6.6292954,-1.0198916
1765068475573,-3.4519407999999996,-6.6292954,-1.0198916
1765068475579,-2.8243152,-5.8447634,-1.0983448
1765068475585,-1.9221034,-5.3740442,-1.1767979999999998
1765068475591,-1.9221034,-5.3740442,-1.1767979999999998
1765068475597,-0.6276256,-5.923216599999999,-0.980665
1765068475603,-0.6276256,-5.923216599999999,-0.980665
1765068475609,-0.7060788,-6.1585762,-0.9414384
1765068475615,-0.8629851999999999,-6.276256,-0.5491724
1765068475655,-0.8629851999999999,-5.687856999999999,-0.3530394
1765068475661,-0.8629851999999999,-5.687856999999999,-0.3530394
1765068475667,-1.6082906,-5.8055368,-0.2353596
1765068475673,-1.6082906,-5.8055368,-0.2353596
1765068475679,-2.1966896,-6.4331624,0.2745862
1765068475685,-2.3928225999999997,-6.7077486,0.6276256
1765068475691,-2.3928225999999997,-6.7077486,0.6276256
1765068475697,-2.1966896,-5.4917240000000005,0.3138128
1765068475703,-2.1966896,-5.4917240000000005,0.3138128
1765068475709,-1.8828768,-5.1386845999999995,0.5883989999999999
1765068475715,-1.8828768,-5.1386845999999995,0.5883989999999999
1765068475722,-1.0983448,-5.4917240000000005,0.7060788
1765068475727,-0.2353596,-5.1779112,0.2745862
1765068475733,-0.2353596,-5.1779112,0.2745862
1765068475739,0.3530394,-5.1386845999999995,0.0392266
1765068475745,0.3530394,-5.1386845999999995,0.0392266
1765068475751,1.8828768,-5.8055368,-0.0392266
1765068475757,2.4712758,-6.001669799999999,-0.1569064
1765068475763,2.4712758,-6.001669799999999,-0.1569064
1765068475769,1.7259703999999998,-7.609960399999999,0.0784532
1765068475810,0.0,-9.1005712,0.7453053999999999
1765068475816,0.0,-9.1005712,0.7453053999999999
1765068475822,1.6867438000000001,-7.5707338,0.43149259999999995
1765068475828,1.569064,-5.8055368,0.2353596
1765068475834,1.569064,-5.8055368,0.2353596
1765068475840,1.2160246,-4.511059,0.196133
1765068475846,1.2160246,-4.511059,0.196133
1765068475852,2.0005566,-3.5696205999999995,-0.1176798
1765068475858,2.0005566,-3.5696205999999995,-0.1176798
1765068475864,3.0596748,-4.5895122,-0.6276256
1765068475870,3.2165812,-7.5707338,-1.0198916
1765068475876,3.2165812,-7.5707338,-1.0198916
1765068475882,2.4320492,-10.0420096,-1.3337044
1765068475888,2.4320492,-10.0420096,-1.3337044
1765068475894,0.3138128,-11.1403544,-1.2944778
1765068475900,-1.8044235999999998,-11.454167199999999,-0.8629851999999999
1765068475906,-1.8044235999999998,-11.454167199999999,-0.8629851999999999
1765068475912,-2.9812215999999996,-10.6696352,-0.5099458
1765068475918,-2.9812215999999996,-10.6696352,-0.5099458
1765068475924,-2.7066354,-9.7674234,-0.6668522
1765068475965,-0.5491724,-10.9442214,-2.157463
1765068475971,0.0392266,-10.6304086,-2.4712758
1765068475977,0.0392266,-10.6304086,-2.4712758
1765068475983,0.5883989999999999,-11.493393799999998,-2.7458620000000002
1765068475989,0.5883989999999999,-11.493393799999998,-2.7458620000000002
1765068475995,0.0392266,-13.1016844,-2.8243152
1765068476001,-1.1767979999999998,-14.592295199999999,-2.7458620000000002
1765068476007,-1.1767979999999998,-14.592295199999999,-2.7458620000000002
1765068476013,-2.1966896,-14.8276548,-3.0204481999999997
1765068476019,-2.1966896,-14.8276548,-3.0204481999999997
1765068476025,-2.3928225999999997,-13.493950400000001,-3.4127142
1765068476031,-2.549729,-11.807206599999999,-4.0403398
1765068476037,-2.549729,-11.807206599999999,-4.0403398
1765068476043,-1.3337044,-11.6895268,-3.4911673999999997
1765068476049,-1.3337044,-11.6895268,-3.4911673999999997
1765068476055,-0.5883989999999999,-11.728753399999999,-3.0596748
1765068476061,-0.5883989999999999,-11.728753399999999,-3.0596748
1765068476067,-0.5883989999999999,-11.061901200000001,-3.334261
1765068476073,-0.1569064,-10.277369199999999,-3.5696205999999995
1765068476079,-0.1569064,-10.277369199999999,-3.5696205999999995
1765068476119,1.3337044,-10.5519554,-3.334261
1765068476125,0.6276256,-10.6696352,-3.6088471999999996
1765068476131,0.6276256,-10.6696352,-3.6088471999999996
1765068476137,-1.569064,-9.5320638,-4.4718324
1765068476143,-3.6480737999999997,-10.277369199999999,-4.3933792
1765068476149,-3.6480737999999997,-10.277369199999999,-4.3933792
1765068476155,-5.0602314,-12.356378999999999,-4.3541526
1765068476161,-5.0602314,-12.356378999999999,-4.3541526
1765068476167,-6.0801229999999995,-13.846989799999998,-3.9618866
1765068476173,-6.1193496,-12.8663248,-3.92266
1765068476179,-6.1193496,-12.8663248,-3.92266
1765068476185,-4.2364728,-9.218251,-4.158019599999999
1765068476191,-4.2364728,-9.218251,-4.158019599999999
1765068476197,-2.8635417999999997,-12.003339599999999,-3.4911673999999997
1765068476203,-1.5298374,-11.1403544,-3.0204481999999997
1765068476209,-1.5298374,-11.1403544,-3.0204481999999997
1765068476215,-1.2944778,-8.629852,-4.0403398
1765068476221,-1.2944778,-8.629852,-4.0403398
1765068476227,-1.6475172,-9.1397978,-4.158019599999999
