timestamp_ms,ax,ay,az
1765068596287,-6.3939357999999995,-5.0210048,-1.3729310000000001
1765068596328,-6.943108199999999,-5.962443199999999,-1.7259703999999998
1765068596334,-7.217694399999999,-6.040896399999999,-2.0790097999999997
1765068596340,-8.041453,-6.5116156,-2.4320492
1765068596346,-8.041453,-6.5116156,-2.4320492
1765068596352,-8.1983594,-6.8254284,-2.4320492
1765068596358,-8.1983594,-6.8254284,-2.4320492
1765068596364,-7.453054,-6.2370294,-2.2359162
1765068596370,-7.256920999999999,-6.001669799999999,-1.96133
1765068596376,-7.256920999999999,-6.001669799999999,-1.96133
1765068596382,-7.609960399999999,-6.1193496,-1.7259703999999998
1765068596388,-7.609960399999999,-6.1193496,-1.7259703999999998
1765068596394,-8.041453,-6.668522,-2.157463
1765068596400,-8.0022264,-6.903881599999999,-2.1966896
1765068596406,-8.0022264,-6.903881599999999,-2.1966896
1765068596412,-8.0806796,-6.7469752000000005,-2.157463
1765068596418,-8.0806796,-6.7469752000000005,-2.157463
1765068596424,-8.394492399999999,-5.923216599999999,-2.3535959999999996
1765068596430,-8.629852,-5.687856999999999,-2.6281822
1765068596436,-8.629852,-5.687856999999999,-2.6281822
1765068596442,-8.5121722,-6.1585762,-2.5889556
1765068596483,-8.0806796,-4.9817782,-2.0790097999999997
1765068596489,-8.0806796,-4.9817782,-2.0790097999999997
1765068596495,-7.6884136,-4.903325,-2.0397832
1765068596501,-6.864655,-5.530950600000001,-1.9221034
1765068596507,-6.864655,-5.530950600000001,-1.9221034
1765068596513,-6.1978028,-5.7663101999999995,-1.2944778
1765068596519,-6.1978028,-5.7663101999999995,-1.2944778
1765068596525,-4.9817782,-5.3348176,-0.9022117999999999
1765068596531,-4.9817782,-5.3348176,-0.9022117999999999
1765068596537,-4.1972461999999995,-5.6094038,-1.3337044
1765068596543,-3.6873004,-6.3939357999999995,-1.2552512
1765068596549,-3.6873004,-6.3939357999999995,-1.2552512
1765068596555,-3.2558078,-6.7077486,-0.980665
1765068596561,-3.2558078,-6.7077486,-0.980665
1765068596567,-3.138128,-6.786201800000001,-0.8237586
1765068596573,-3.138128,-7.256920999999999,-0.784532
1765068596579,-3.138128,-7.256920999999999,-0.784532
1765068596585,-3.8442068,-7.84532,-1.6475172
1765068596591,-3.8442068,-7.84532,-1.6475172
1765068596597,-5.4524974,-8.825985,-2.3143694
1765068596637,-6.786201800000001,-8.9828914,-3.138128
1765068596643,-6.1193496,-8.9044382,-3.4127142
1765068596649,-6.1193496,-8.9044382,-3.4127142
1765068596655,-7.1000146,-9.492837199999999,-3.3734876000000003
1765068596661,-7.1000146,-9.492837199999999,-3.3734876000000003
1765068596667,-7.84532,-9.9635564,-3.8049801999999997
1765068596673,-7.8845466,-10.1204628,-3.726527
1765068596679,-7.8845466,-10.1204628,-3.726527
1765068596685,-8.1983594,-9.571290399999999,-3.334261
1765068596691,-8.1983594,-9.571290399999999,-3.334261
1765068596697,-8.9044382,-8.316039199999999,-3.0204481999999997
1765068596703,-8.9044382,-8.316039199999999,-3.0204481999999997
1765068596709,-9.9635564,-7.453054,-2.4320492
1765068596715,-10.8265416,-7.256920999999999,-2.2359162
1765068596721,-10.8265416,-7.256920999999999,-2.2359162
1765068596727,-10.1596894,-7.139241199999999,-1.9221034
1765068596733,-10.1596894,-7.139241199999999,-1.9221034
1765068596739,-9.9635564,-7.453054,-1.6082906
1765068596745,-10.0812362,-7.5707338,-1.6475172
1765068596751,-10.0812362,-7.5707338,-1.6475172
1765068596791,-10.395049,-6.1193496,-2.2359162
1765068596797,-9.9635564,-7.1000146,-2.3143694
1765068596803,-9.9635564,-7.1000146,-2.3143694
1765068596809,-9.0613446,-7.7276402,-2.4712758
1765068596815,-9.1005712,-8.1591328,-2.6674088
1765068596821,-9.1005712,-8.1591328,-2.6674088
1765068596827,-9.80665,-8.2768126,-2.9812215999999996
1765068596833,-9.80665,-8.2768126,-2.9812215999999996
1765068596839,-9.649743599999999,-7.5315072,-3.0596748
1765068596845,-9.649743599999999,-7.5315072,-3.0596748
1765068596851,-9.610517,-6.864655,-2.3928225999999997
1765068596857,-10.002782999999999,-6.668522,-2.0397832
1765068596863,-10.002782999999999,-6.668522,-2.0397832
1765068596869,-9.7674234,-5.962443199999999,-1.5298374
1765068596875,-9.7674234,-5.962443199999999,-1.5298374
1765068596881,-9.9635564,-6.2370294,-1.2160246
1765068596887,-9.9635564,-6.1193496,-0.980665
1765068596893,-9.9635564,-6.1193496,-0.980665
1765068596899,-8.629852,-5.4132708,-0.784532
1765068596905,-8.629852,-5.4132708,-0.784532
1765068596946,-9.610517,-3.8834334,0.196133
1765068596952,-9.3751574,-4.0403398,-0.0784532
1765068596958,-9.022118,-4.5502856,-0.392266
1765068596964,-9.022118,-4.5502856,-0.392266
1765068596970,-9.6889702,-4.903325,0.0392266
1765068596976,-9.6889702,-4.903325,0.0392266
1765068596982,-9.2574776,-4.314926,0.1569064
1765068596988,-8.9044382,-3.8834334,0.43149259999999995
1765068596994,-8.9044382,-3.8834334,0.43149259999999995
1765068597000,-9.492837199999999,-4.4326058,0.3530394
1765068597006,-9.492837199999999,-4.4326058,0.3530394
1765068597012,-9.2574776,-4.746418599999999,0.0392266
1765068597018,-9.2574776,-4.746418599999999,0.0392266
1765068597024,-9.1005712,-4.8248717999999995,-0.3530394
1765068597030,-9.4536106,-5.1386845999999995,-0.3138128
1765068597036,-9.4536106,-5.1386845999999995,-0.3138128
1765068597042,-8.9828914,-4.903325,-0.0392266
1765068597048,-8.9828914,-4.903325,-0.0392266
1765068597054,-7.7276402,-3.7657536,0.1569064
1765068597060,-8.433719,-3.1773545999999997,0.392266
1765068597100,-7.5315072,-3.1773545999999997,-0.0784532
1765068597106,-7.5315072,-3.1773545999999997,-0.0784532
1765068597112,-6.786201800000001,-4.158019599999999,-0.2745862
1765068597118,-6.786201800000001,-4.158019599999999,-0.2745862
1765068597124,-7.0215613999999995,-5.3348176,-0.3530394
1765068597130,-7.0215613999999995,-5.1779112,-0.4707192
1765068597136,-7.0215613999999995,-5.1779112,-0.4707192
1765068597142,-6.1585762,-4.314926,-0.5491724
1765068597148,-6.1585762,-4.314926,-0.5491724
1765068597154,-5.3348176,-3.1773545999999997,-0.43149259999999995
1765068597160,-5.88399,-3.0204481999999997,-0.0784532
1765068597166,-5.88399,-3.0204481999999997,-0.0784532
1765068597172,-5.687856999999999,-3.1773545999999997,0.1569064
1765068597178,-5.687856999999999,-3.1773545999999997,0.1569064
1765068597184,-5.2563644,-3.6480737999999997,0.0
1765068597190,-5.2563644,-3.6480737999999997,0.0
1765068597196,-3.92266,-4.4718324,-0.6276256
1765068597202,-3.8834334,-5.2563644,-0.980665
1765068597208,-3.8834334,-5.2563644,-0.980665
1765068597214,-4.4718324,-5.962443199999999,-0.6276256
1765068597255,-3.726527,-4.2756994,-0.0392266
1765068597261,-3.726527,-4.2756994,-0.0392266
1765068597267,-3.2558078,-4.4718324,0.0392266
1765068597273,-2.6674088,-4.5502856,-0.392266
1765068597279,-2.6674088,-4.5502856,-0.392266
1765068597285,-3.0989014,-5.3740442,-0.5491724
1765068597291,-3.0989014,-5.3740442,-0.5491724
1765068597297,-3.6088471999999996,-6.3154826,-1.0591182
1765068597303,-2.9812215999999996,-6.8254284,-1.1375714
1765068597309,-2.9812215999999996,-6.8254284,-1.1375714
1765068597315,-3.1773545999999997,-7.217694399999999,-0.784532
1765068597321,-3.1773545999999997,-7.217694399999999,-0.784532
1765068597327,-3.4911673999999997,-6.903881599999999,-0.5099458
1765068597333,-4.3933792,-6.7469752000000005,-0.784532
1765068597339,-4.3933792,-6.7469752000000005,-0.784532
1765068597345,-5.1779112,-7.139241199999999,-1.0983448
1765068597351,-5.1779112,-7.139241199999999,-1.0983448
1765068597357,-3.726527,-7.4922806,-1.2552512
1765068597363,-3.726527,-7.4922806,-1.2552512
1765068597369,-3.4911673999999997,-8.2768126,-1.1767979999999998
1765068597410,-2.2751428,-9.0613446,-0.7060788
1765068597416,-2.0005566,-9.3359308,-0.8237586
1765068597422,-2.0005566,-9.3359308,-0.8237586
1765068597428,-2.1182364,-9.2574776,-0.980665
1765068597434,-2.1182364,-9.2574776,-0.980665
1765068597440,-3.0204481999999997,-8.5121722,-1.3337044
1765068597446,-3.1773545999999997,-8.1199062,-1.6867438000000001
1765068597452,-3.1773545999999997,-8.1199062,-1.6867438000000001
1765068597458,-3.2950344,-8.629852,-1.765197
1765068597464,-3.2950344,-8.629852,-1.765197
1765068597470,-2.7458620000000002,-10.0812362,-1.4906107999999998
1765068597476,-1.765197,-10.983448000000001,-1.0591182
1765068597482,-1.765197,-10.983448000000001,-1.0591182
1765068597488,-0.980665,-11.2188076,-1.1767979999999998
1765068597494,-0.980665,-11.2188076,-1.1767979999999998
1765068597500,-1.2160246,-10.9442214,-1.0983448
1765068597506,-1.9221034,-10.4735022,-0.7453053999999999
1765068597512,-1.9221034,-10.4735022,-0.7453053999999999
1765068597518,-2.5889556,-10.198916,-0.8237586
1765068597524,-2.5889556,-10.198916,-0.8237586
1765068597565,-2.8243152,-10.7480884,-1.7259703999999998
1765068597571,-3.2950344,-10.983448000000001,-1.96133
1765068597577,-3.6480737999999997,-10.591182,-2.3535959999999996
1765068597583,-3.6480737999999997,-10.591182,-2.3535959999999996
1765068597589,-4.2756994,-10.395049,-2.4712758
1765068597595,-4.2756994,-10.395049,-2.4712758
1765068597601,-3.6480737999999997,-10.2381426,-2.157463
1765068597607,-3.6480737999999997,-10.2381426,-2.157463
1765068597613,-2.9027684,-10.6696352,-1.8828768
1765068597619,-2.549729,-11.1403544,-1.4513842
1765068597625,-2.549729,-11.1403544,-1.4513842
1765068597631,-2.0005566,-11.3364874,-1.3729310000000001
1765068597637,-2.0005566,-11.3364874,-1.3729310000000001
1765068597643,-2.1966896,-11.6110736,-1.4513842
1765068597649,-3.5696205999999995,-12.081792799999999,-1.8436502
1765068597655,-3.5696205999999995,-12.081792799999999,-1.8436502
1765068597661,-3.92266,-11.885659799999999,-2.0790097999999997
1765068597666,-3.92266,-11.885659799999999,-2.0790097999999997
1765068597672,-4.0403398,-11.1011278,-2.0397832
1765068597678,-4.2364728,-10.6304086,-2.0790097999999997
1765068597719,-5.099458,-10.8657682,-2.2359162
1765068597725,-5.099458,-10.8657682,-2.2359162
1765068597731,-4.5895122,-11.2972608,-2.4320492
1765068597737,-4.5895122,-11.2972608,-2.4320492
1765068597743,-5.1386845999999995,-11.728753399999999,-2.5889556
1765068597749,-5.1386845999999995,-11.728753399999999,-2.5889556
1765068597755,-5.6486304,-11.493393799999998,-2.549729
1765068597761,-5.687856999999999,-10.7088618,-2.5105024
1765068597767,-5.687856999999999,-10.7088618,-2.5105024
1765068597773,-6.1978028,-10.1596894,-2.3535959999999996
1765068597779,-6.1978028,-10.1596894,-2.3535959999999996
1765068597785,-6.5508422,-9.80665,-2.1966896
1765068597791,-6.864655,-9.414383999999998,-1.8828768
1765068597797,-6.864655,-9.414383999999998,-1.8828768
1765068597803,-7.5315072,-9.1005712,-1.8044235999999998
1765068597809,-7.5315072,-9.1005712,-1.8044235999999998
1765068597815,-7.9629998,-8.5121722,-1.8436502
1765068597821,-8.041453,-8.1199062,-1.765197
1765068597827,-8.041453,-8.1199062,-1.765197
