timestamp_ms,ax,ay,az
1765062074293,9.80665,0.4707192,-0.392266
1765062074413,9.80665,0.5099458,-0.392266
1765062074420,9.8851032,0.4707192,-0.43149259999999995
1765062074426,9.80665,0.4707192,-0.392266
1765062074431,9.80665,0.4707192,-0.392266
1765062074437,9.80665,0.4707192,-0.392266
1765062074443,9.80665,0.4707192,-0.392266
1765062074449,9.80665,0.5099458,-0.4707192
1765062074455,9.80665,0.4707192,-0.392266
1765062074461,9.80665,0.4707192,-0.392266
1765062074467,9.80665,0.4707192,-0.3530394
1765062074473,9.80665,0.4707192,-0.3530394
1765062074479,9.845876599999999,0.5099458,-0.4707192
1765062074485,9.7674234,0.4707192,-0.43149259999999995
1765062074491,9.7674234,0.4707192,-0.43149259999999995
1765062074497,9.80665,0.4707192,-0.392266
1765062074503,9.80665,0.4707192,-0.392266
1765062074509,9.845876599999999,0.4707192,-0.43149259999999995
1765062074515,9.845876599999999,0.4707192,-0.43149259999999995
1765062074521,9.7674234,0.43149259999999995,-0.3530394
1765062074527,9.845876599999999,0.43149259999999995,-0.43149259999999995
1765062074568,9.80665,0.4707192,-0.3530394
1765062074574,9.80665,0.4707192,-0.3530394
1765062074580,9.80665,0.5099458,-0.392266
1765062074586,9.80665,0.5099458,-0.392266
1765062074592,9.7674234,0.392266,-0.2745862
1765062074598,9.80665,0.43149259999999995,-0.392266
1765062074604,9.80665,0.43149259999999995,-0.392266
1765062074610,9.7674234,0.43149259999999995,-0.43149259999999995
1765062074616,9.7674234,0.43149259999999995,-0.43149259999999995
1765062074622,9.845876599999999,0.43149259999999995,-0.392266
1765062074628,9.80665,0.4707192,-0.392266
1765062074634,9.80665,0.4707192,-0.392266
1765062074640,9.845876599999999,0.5099458,-0.43149259999999995
1765062074646,9.845876599999999,0.5099458,-0.43149259999999995
1765062074652,9.845876599999999,0.5491724,-0.4707192
1765062074658,9.80665,0.4707192,-0.392266
1765062074664,9.80665,0.4707192,-0.392266
1765062074670,9.80665,0.4707192,-0.4707192
1765062074676,9.80665,0.4707192,-0.4707192
1765062074682,9.80665,0.5099458,-0.43149259999999995
1765062074722,9.845876599999999,0.43149259999999995,-0.43149259999999995
1765062074728,9.845876599999999,0.43149259999999995,-0.43149259999999995
1765062074734,9.845876599999999,0.4707192,-0.43149259999999995
1765062074740,9.845876599999999,0.43149259999999995,-0.4707192
1765062074746,9.845876599999999,0.43149259999999995,-0.4707192
1765062074752,9.845876599999999,0.4707192,-0.43149259999999995
1765062074758,9.845876599999999,0.4707192,-0.43149259999999995
1765062074764,9.80665,0.5099458,-0.43149259999999995
1765062074770,9.80665,0.4707192,-0.4707192
1765062074776,9.80665,0.4707192,-0.4707192
1765062074782,9.80665,0.4707192,-0.43149259999999995
1765062074788,9.80665,0.4707192,-0.43149259999999995
1765062074794,9.845876599999999,0.392266,-0.392266
1765062074800,9.80665,0.43149259999999995,-0.392266
1765062074806,9.80665,0.43149259999999995,-0.392266
1765062074812,9.80665,0.4707192,-0.392266
1765062074818,9.80665,0.4707192,-0.392266
1765062074824,9.845876599999999,0.5099458,-0.43149259999999995
1765062074830,9.845876599999999,0.5099458,-0.43149259999999995
1765062074836,9.80665,0.5099458,-0.43149259999999995
1765062074877,9.845876599999999,0.392266,-0.43149259999999995
1765062074883,9.845876599999999,0.43149259999999995,-0.43149259999999995
1765062074889,9.845876599999999,0.43149259999999995,-0.43149259999999995
1765062074895,9.80665,0.5099458,-0.43149259999999995
1765062074901,9.80665,0.5099458,-0.43149259999999995
1765062074907,9.924329799999999,0.4707192,-0.392266
1765062074913,9.80665,0.43149259999999995,-0.3530394
1765062074919,9.80665,0.43149259999999995,-0.3530394
1765062074925,9.80665,0.4707192,-0.43149259999999995
1765062074931,9.80665,0.4707192,-0.43149259999999995
1765062074937,9.8851032,0.4707192,-0.3530394
1765062074943,9.845876599999999,0.392266,-0.43149259999999995
1765062074949,9.845876599999999,0.392266,-0.43149259999999995
1765062074955,9.80665,0.4707192,-0.43149259999999995
1765062074961,9.80665,0.4707192,-0.43149259999999995
1765062074967,9.80665,0.43149259999999995,-0.3530394
1765062074973,9.80665,0.5099458,-0.392266
1765062074979,9.80665,0.5099458,-0.392266
1765062074985,9.80665,0.43149259999999995,-0.5099458
1765062074991,9.80665,0.43149259999999995,-0.5099458
1765062075031,9.80665,0.43149259999999995,-0.4707192
1765062075037,9.845876599999999,0.4707192,-0.5099458
1765062075043,9.845876599999999,0.4707192,-0.5099458
1765062075049,9.845876599999999,0.4707192,-0.4707192
1765062075055,9.7674234,0.43149259999999995,-0.43149259999999995
1765062075061,9.7674234,0.43149259999999995,-0.43149259999999995
1765062075067,9.80665,0.4707192,-0.392266
1765062075073,9.80665,0.4707192,-0.392266
1765062075079,9.7674234,0.43149259999999995,-0.2745862
1765062075085,9.80665,0.43149259999999995,-0.392266
1765062075091,9.80665,0.43149259999999995,-0.392266
1765062075097,9.80665,0.4707192,-0.43149259999999995
1765062075103,9.80665,0.4707192,-0.43149259999999995
1765062075109,9.80665,0.4707192,-0.43149259999999995
1765062075115,9.845876599999999,0.4707192,-0.43149259999999995
1765062075121,9.845876599999999,0.4707192,-0.43149259999999995
1765062075127,9.80665,0.5099458,-0.392266
1765062075133,9.80665,0.5099458,-0.392266
1765062075139,9.7674234,0.43149259999999995,-0.43149259999999995
1765062075145,9.7674234,0.43149259999999995,-0.43149259999999995
1765062075186,9.80665,0.4707192,-0.43149259999999995
1765062075192,9.845876599999999,0.4707192,-0.43149259999999995
1765062075198,9.845876599999999,0.4707192,-0.43149259999999995
1765062075204,9.845876599999999,0.4707192,-0.43149259999999995
1765062075210,9.80665,0.43149259999999995,-0.2745862
1765062075216,9.80665,0.43149259999999995,-0.2745862
1765062075222,9.8851032,0.5883989999999999,-0.43149259999999995
1765062075228,9.845876599999999,0.5099458,-0.392266
1765062075234,9.845876599999999,0.5099458,-0.392266
1765062075240,9.80665,0.4707192,-0.43149259999999995
1765062075245,9.80665,0.4707192,-0.43149259999999995
1765062075251,9.80665,0.5491724,-0.43149259999999995
1765062075257,9.845876599999999,0.4707192,-0.392266
1765062075263,9.845876599999999,0.4707192,-0.392266
1765062075269,9.845876599999999,0.43149259999999995,-0.392266
1765062075275,9.845876599999999,0.43149259999999995,-0.392266
1765062075281,9.8851032,0.43149259999999995,-0.392266
1765062075287,9.845876599999999,0.4707192,-0.43149259999999995
1765062075293,9.845876599999999,0.4707192,-0.43149259999999995
1765062075299,9.845876599999999,0.43149259999999995,-0.43149259999999995
1765062075340,9.845876599999999,0.43149259999999995,-0.43149259999999995
1765062075346,9.845876599999999,0.43149259999999995,-0.43149259999999995
1765062075352,9.80665,0.4707192,-0.43149259999999995
1765062075358,9.80665,0.4707192,-0.43149259999999995
1765062075364,9.7674234,0.5491724,-0.392266
1765062075370,9.80665,0.4707192,-0.392266
1765062075376,9.80665,0.4707192,-0.392266
1765062075382,9.7674234,0.5099458,-0.392266
1765062075388,9.7674234,0.5099458,-0.392266
1765062075394,9.80665,0.4707192,-0.3530394
1765062075400,9.845876599999999,0.43149259999999995,-0.43149259999999995
1765062075406,9.845876599999999,0.43149259999999995,-0.43149259999999995
1765062075412,9.845876599999999,0.392266,-0.43149259999999995
1765062075418,9.845876599999999,0.392266,-0.43149259999999995
1765062075424,9.80665,0.5099458,-0.392266
1765062075430,9.8851032,0.4707192,-0.392266
1765062075436,9.8851032,0.4707192,-0.392266
1765062075442,9.845876599999999,0.5099458,-0.392266
1765062075448,9.845876599999999,0.5099458,-0.392266
1765062075454,9.845876599999999,0.4707192,-0.3530394
1765062075495,9.80665,0.4707192,-0.3530394
1765062075501,9.80665,0.43149259999999995,-0.43149259999999995
1765062075507,9.80665,0.43149259999999995,-0.43149259999999995
1765062075513,9.845876599999999,0.4707192,-0.43149259999999995
1765062075519,9.845876599999999,0.4707192,-0.43149259999999995
1765062075525,9.80665,0.43149259999999995,-0.392266
1765062075531,9.80665,0.43149259999999995,-0.392266
1765062075537,9.80665,0.4707192,-0.4707192
1765062075543,9.80665,0.4707192,-0.43149259999999995
1765062075549,9.80665,0.4707192,-0.43149259999999995
1765062075555,9.80665,0.4707192,-0.392266
1765062075561,9.80665,0.4707192,-0.392266
1765062075567,9.845876599999999,0.5099458,-0.2745862
1765062075573,9.80665,0.4707192,-0.43149259999999995
1765062075579,9.80665,0.4707192,-0.43149259999999995
1765062075585,9.7674234,0.4707192,-0.43149259999999995
1765062075591,9.7674234,0.4707192,-0.43149259999999995
1765062075597,9.80665,0.5099458,-0.392266
1765062075603,9.845876599999999,0.4707192,-0.43149259999999995
1765062075609,9.845876599999999,0.4707192,-0.43149259999999995
1765062075649,9.80665,0.43149259999999995,-0.43149259999999995
1765062075655,9.845876599999999,0.43149259999999995,-0.392266
1765062075661,9.845876599999999,0.43149259999999995,-0.392266
1765062075667,9.845876599999999,0.4707192,-0.5491724
1765062075673,9.845876599999999,0.4707192,-0.5491724
1765062075679,9.8851032,0.4707192,-0.43149259999999995
1765062075685,9.845876599999999,0.43149259999999995,-0.43149259999999995
1765062075691,9.845876599999999,0.43149259999999995,-0.43149259999999995
1765062075697,9.80665,0.4707192,-0.392266
1765062075703,9.80665,0.4707192,-0.392266
1765062075709,9.845876599999999,0.5099458,-0.43149259999999995
1765062075715,9.7674234,0.5099458,-0.43149259999999995
1765062075721,9.7674234,0.5099458,-0.43149259999999995
1765062075727,9.80665,0.5099458,-0.392266
1765062075733,9.80665,0.5099458,-0.392266
1765062075739,9.7674234,0.43149259999999995,-0.392266
1765062075745,9.7674234,0.4707192,-0.43149259999999995
1765062075751,9.7674234,0.4707192,-0.43149259999999995
1765062075757,9.845876599999999,0.43149259999999995,-0.3138128
1765062075763,9.845876599999999,0.43149259999999995,-0.3138128
1765062075804,9.80665,0.4707192,-0.43149259999999995
1765062075810,9.80665,0.392266,-0.43149259999999995
1765062075816,9.845876599999999,0.43149259999999995,-0.5099458
1765062075822,9.845876599999999,0.43149259999999995,-0.5099458
1765062075828,9.80665,0.4707192,-0.43149259999999995
1765062075834,9.80665,0.4707192,-0.43149259999999995
1765062075840,9.845876599999999,0.5099458,-0.4707192
1765062075846,9.845876599999999,0.5099458,-0.4707192
1765062075852,9.8851032,0.43149259999999995,-0.5099458
1765062075858,9.80665,0.43149259999999995,-0.43149259999999995
1765062075864,9.80665,0.43149259999999995,-0.43149259999999995
1765062075870,9.845876599999999,0.43149259999999995,-0.4707192
1765062075876,9.845876599999999,0.43149259999999995,-0.4707192
1765062075882,9.8851032,0.4707192,-0.392266
1765062075888,9.80665,0.4707192,-0.4707192
1765062075894,9.80665,0.4707192,-0.4707192
1765062075900,9.845876599999999,0.392266,-0.43149259999999995
1765062075906,9.845876599999999,0.392266,-0.43149259999999995
1765062075912,9.80665,0.4707192,-0.43149259999999995
