timestamp_ms,ax,ay,az
1765062094597,9.80665,0.43149259999999995,-0.392266
1765062094638,9.7674234,0.43149259999999995,-0.4707192
1765062094644,9.7674234,0.43149259999999995,-0.4707192
1765062094650,9.845876599999999,0.43149259999999995,-0.43149259999999995
1765062094656,9.845876599999999,0.43149259999999995,-0.392266
1765062094662,9.845876599999999,0.43149259999999995,-0.392266
1765062094668,9.80665,0.43149259999999995,-0.392266
1765062094674,9.80665,0.43149259999999995,-0.392266
1765062094680,9.80665,0.4707192,-0.43149259999999995
1765062094686,9.845876599999999,0.43149259999999995,-0.43149259999999995
1765062094692,9.845876599999999,0.43149259999999995,-0.43149259999999995
1765062094698,9.7674234,0.4707192,-0.43149259999999995
1765062094704,9.7674234,0.4707192,-0.43149259999999995
1765062094710,9.80665,0.4707192,-0.4707192
1765062094716,9.80665,0.4707192,-0.4707192
1765062094722,9.845876599999999,0.4707192,-0.5099458
1765062094728,9.80665,0.43149259999999995,-0.392266
1765062094734,9.80665,0.43149259999999995,-0.392266
1765062094740,9.80665,0.4707192,-0.3138128
1765062094746,9.80665,0.4707192,-0.3138128
1765062094752,9.845876599999999,0.392266,-0.43149259999999995
1765062094793,9.7281968,0.43149259999999995,-0.5099458
1765062094799,9.80665,0.43149259999999995,-0.4707192
1765062094805,9.80665,0.43149259999999995,-0.4707192
1765062094811,9.80665,0.4707192,-0.43149259999999995
1765062094817,9.80665,0.4707192,-0.43149259999999995
1765062094823,9.80665,0.5099458,-0.43149259999999995
1765062094829,9.80665,0.5099458,-0.4707192
1765062094835,9.80665,0.5099458,-0.4707192
1765062094841,9.845876599999999,0.43149259999999995,-0.4707192
1765062094847,9.845876599999999,0.43149259999999995,-0.4707192
1765062094853,9.80665,0.43149259999999995,-0.5491724
1765062094858,9.80665,0.43149259999999995,-0.43149259999999995
1765062094864,9.80665,0.43149259999999995,-0.43149259999999995
1765062094870,9.845876599999999,0.392266,-0.4707192
1765062094876,9.845876599999999,0.392266,-0.4707192
1765062094882,9.80665,0.4707192,-0.5491724
1765062094888,9.80665,0.4707192,-0.5491724
1765062094894,9.80665,0.4707192,-0.5099458
1765062094900,9.8851032,0.43149259999999995,-0.392266
1765062094906,9.8851032,0.43149259999999995,-0.392266
1765062094947,9.80665,0.43149259999999995,-0.43149259999999995
1765062094953,9.80665,0.43149259999999995,-0.5099458
1765062094959,9.80665,0.43149259999999995,-0.5099458
1765062094965,9.845876599999999,0.5099458,-0.4707192
1765062094971,9.80665,0.4707192,-0.4707192
1765062094977,9.80665,0.4707192,-0.4707192
1765062094983,9.80665,0.5099458,-0.43149259999999995
1765062094989,9.80665,0.5099458,-0.43149259999999995
1765062094995,9.80665,0.4707192,-0.392266
1765062095001,9.80665,0.43149259999999995,-0.43149259999999995
1765062095007,9.80665,0.43149259999999995,-0.43149259999999995
1765062095013,9.80665,0.43149259999999995,-0.4707192
1765062095019,9.80665,0.43149259999999995,-0.4707192
1765062095025,9.80665,0.5491724,-0.4707192
1765062095031,9.80665,0.4707192,-0.43149259999999995
1765062095037,9.80665,0.4707192,-0.43149259999999995
1765062095043,9.8851032,0.43149259999999995,-0.4707192
1765062095049,9.8851032,0.43149259999999995,-0.4707192
1765062095055,9.8851032,0.392266,-0.4707192
1765062095061,9.8851032,0.392266,-0.4707192
1765062095101,9.845876599999999,0.43149259999999995,-0.43149259999999995
1765062095107,9.80665,0.4707192,-0.4707192
1765062095113,9.845876599999999,0.5099458,-0.5099458
1765062095119,9.845876599999999,0.5099458,-0.5099458
1765062095125,9.8851032,0.43149259999999995,-0.4707192
1765062095131,9.8851032,0.43149259999999995,-0.4707192
1765062095137,9.7674234,0.43149259999999995,-0.43149259999999995
1765062095143,9.80665,0.392266,-0.4707192
1765062095149,9.80665,0.392266,-0.4707192
1765062095155,9.80665,0.5099458,-0.392266
1765062095161,9.80665,0.5099458,-0.392266
1765062095167,9.8851032,0.392266,-0.4707192
1765062095173,9.80665,0.4707192,-0.43149259999999995
1765062095179,9.80665,0.4707192,-0.43149259999999995
1765062095185,9.80665,0.392266,-0.43149259999999995
1765062095191,9.80665,0.392266,-0.43149259999999995
1765062095197,9.845876599999999,0.5099458,-0.5099458
1765062095203,9.845876599999999,0.5099458,-0.5099458
1765062095209,9.80665,0.43149259999999995,-0.392266
1765062095215,9.80665,0.43149259999999995,-0.4707192
1765062095256,9.845876599999999,0.392266,-0.43149259999999995
1765062095262,9.845876599999999,0.392266,-0.43149259999999995
1765062095268,9.80665,0.4707192,-0.43149259999999995
1765062095274,9.80665,0.4707192,-0.43149259999999995
1765062095280,9.845876599999999,0.4707192,-0.392266
1765062095286,9.845876599999999,0.4707192,-0.43149259999999995
1765062095292,9.845876599999999,0.4707192,-0.43149259999999995
1765062095298,9.845876599999999,0.5099458,-0.4707192
1765062095304,9.845876599999999,0.5099458,-0.4707192
1765062095310,9.80665,0.5491724,-0.392266
1765062095316,9.80665,0.43149259999999995,-0.5099458
1765062095322,9.80665,0.43149259999999995,-0.5099458
1765062095328,9.80665,0.43149259999999995,-0.4707192
1765062095334,9.80665,0.43149259999999995,-0.4707192
1765062095340,9.80665,0.4707192,-0.43149259999999995
1765062095346,9.80665,0.4707192,-0.43149259999999995
1765062095352,9.80665,0.4707192,-0.43149259999999995
1765062095358,9.7674234,0.4707192,-0.43149259999999995
1765062095364,9.7674234,0.4707192,-0.43149259999999995
1765062095370,9.7674234,0.4707192,-0.3530394
1765062095410,9.80665,0.4707192,-0.43149259999999995
1765062095416,9.80665,0.4707192,-0.43149259999999995
1765062095422,9.845876599999999,0.392266,-0.5099458
1765062095428,9.7674234,0.392266,-0.43149259999999995
1765062095434,9.7674234,0.392266,-0.43149259999999995
1765062095440,9.80665,0.392266,-0.392266
1765062095446,9.80665,0.392266,-0.392266
1765062095452,9.80665,0.43149259999999995,-0.5491724
1765062095458,9.845876599999999,0.43149259999999995,-0.4707192
1765062095464,9.845876599999999,0.43149259999999995,-0.4707192
1765062095470,9.80665,0.43149259999999995,-0.43149259999999995
1765062095476,9.80665,0.43149259999999995,-0.43149259999999995
1765062095482,9.845876599999999,0.43149259999999995,-0.3530394
1765062095488,9.845876599999999,0.392266,-0.43149259999999995
1765062095494,9.845876599999999,0.392266,-0.43149259999999995
1765062095500,9.80665,0.43149259999999995,-0.43149259999999995
1765062095506,9.80665,0.43149259999999995,-0.43149259999999995
1765062095512,9.845876599999999,0.43149259999999995,-0.4707192
1765062095518,9.845876599999999,0.43149259999999995,-0.4707192
1765062095524,9.80665,0.4707192,-0.4707192
1765062095565,9.7674234,0.4707192,-0.4707192
1765062095571,9.845876599999999,0.4707192,-0.4707192
1765062095577,9.845876599999999,0.4707192,-0.4707192
1765062095583,9.80665,0.43149259999999995,-0.43149259999999995
1765062095589,9.80665,0.43149259999999995,-0.43149259999999995
1765062095595,9.845876599999999,0.43149259999999995,-0.392266
1765062095601,9.845876599999999,0.43149259999999995,-0.4707192
1765062095607,9.845876599999999,0.43149259999999995,-0.4707192
1765062095613,9.80665,0.43149259999999995,-0.43149259999999995
1765062095619,9.80665,0.43149259999999995,-0.43149259999999995
1765062095625,9.80665,0.43149259999999995,-0.43149259999999995
1765062095631,9.7674234,0.43149259999999995,-0.4707192
1765062095637,9.7674234,0.43149259999999995,-0.4707192
1765062095643,9.845876599999999,0.43149259999999995,-0.43149259999999995
1765062095649,9.845876599999999,0.43149259999999995,-0.43149259999999995
1765062095655,9.80665,0.43149259999999995,-0.43149259999999995
1765062095661,9.80665,0.392266,-0.43149259999999995
1765062095667,9.80665,0.392266,-0.43149259999999995
1765062095673,9.80665,0.4707192,-0.43149259999999995
1765062095679,9.80665,0.4707192,-0.43149259999999995
1765062095720,9.845876599999999,0.392266,-0.392266
1765062095726,9.7674234,0.4707192,-0.43149259999999995
1765062095732,9.8851032,0.43149259999999995,-0.43149259999999995
1765062095738,9.8851032,0.43149259999999995,-0.43149259999999995
1765062095744,9.845876599999999,0.43149259999999995,-0.4707192
1765062095750,9.845876599999999,0.43149259999999995,-0.4707192
1765062095756,9.845876599999999,0.4707192,-0.5099458
1765062095762,9.845876599999999,0.4707192,-0.5099458
1765062095768,9.845876599999999,0.3530394,-0.4707192
1765062095774,9.80665,0.392266,-0.43149259999999995
1765062095780,9.80665,0.392266,-0.43149259999999995
1765062095786,9.845876599999999,0.3138128,-0.3530394
1765062095792,9.845876599999999,0.3138128,-0.3530394
1765062095798,9.845876599999999,0.4707192,-0.43149259999999995
1765062095804,9.845876599999999,0.43149259999999995,-0.43149259999999995
1765062095810,9.845876599999999,0.43149259999999995,-0.43149259999999995
1765062095816,9.7674234,0.4707192,-0.43149259999999995
1765062095822,9.7674234,0.4707192,-0.43149259999999995
1765062095828,9.80665,0.5099458,-0.4707192
1765062095834,9.845876599999999,0.4707192,-0.43149259999999995
1765062095874,9.845876599999999,0.392266,-0.4707192
1765062095880,9.845876599999999,0.392266,-0.4707192
1765062095886,9.80665,0.43149259999999995,-0.4707192
1765062095892,9.80665,0.43149259999999995,-0.4707192
1765062095898,9.7674234,0.4707192,-0.43149259999999995
1765062095904,9.80665,0.4707192,-0.5099458
1765062095910,9.80665,0.4707192,-0.5099458
1765062095916,9.7674234,0.5099458,-0.392266
1765062095922,9.7674234,0.5099458,-0.392266
1765062095928,9.7674234,0.43149259999999995,-0.392266
1765062095934,9.7674234,0.43149259999999995,-0.392266
1765062095940,9.7674234,0.4707192,-0.4707192
1765062095946,9.845876599999999,0.392266,-0.4707192
1765062095952,9.845876599999999,0.392266,-0.4707192
1765062095958,9.845876599999999,0.43149259999999995,-0.43149259999999995
1765062095964,9.845876599999999,0.43149259999999995,-0.43149259999999995
1765062095970,9.845876599999999,0.5099458,-0.392266
1765062095976,9.8851032,0.43149259999999995,-0.4707192
1765062095982,9.8851032,0.43149259999999995,-0.4707192
1765062095988,9.845876599999999,0.43149259999999995,-0.392266
1765062096029,9.80665,0.4707192,-0.4707192
1765062096035,9.80665,0.4707192,-0.4707192
1765062096041,9.7674234,0.392266,-0.5099458
1765062096047,9.80665,0.43149259999999995,-0.5099458
1765062096053,9.80665,0.43149259999999995,-0.5099458
1765062096059,9.845876599999999,0.4707192,-0.5099458
1765062096065,9.845876599999999,0.4707192,-0.5099458
1765062096071,9.845876599999999,0.392266,-0.4707192
1765062096077,9.845876599999999,0.392266,-0.4707192
1765062096083,9.80665,0.392266,-0.43149259999999995
1765062096089,9.7674234,0.4707192,-0.43149259999999995
1765062096095,9.7674234,0.4707192,-0.43149259999999995
1765062096101,9.80665,0.4707192,-0.3530394
1765062096107,9.80665,0.4707192,-0.3530394
1765062096113,9.80665,0.4707192,-0.3530394
1765062096119,9.845876599999999,0.4707192,-0.43149259999999995
1765062096125,9.845876599999999,0.4707192,-0.43149259999999995
1765062096131,9.80665,0.43149259999999995,-0.43149259999999995
1765062096137,9.80665,0.43149259999999995,-0.43149259999999995
