timestamp_ms,ax,ay,az
1765062748932,9.6889702,0.392266,-1.765197
1765062748972,9.610517,0.392266,-1.7259703999999998
1765062748978,9.610517,0.392266,-1.7259703999999998
1765062748984,9.649743599999999,0.4707192,-1.765197
1765062748990,9.649743599999999,0.4707192,-1.765197
1765062748996,9.7281968,0.392266,-1.7259703999999998
1765062749002,9.7281968,0.392266,-1.7259703999999998
1765062749008,9.7281968,0.43149259999999995,-1.765197
1765062749014,9.6889702,0.392266,-1.765197
1765062749020,9.6889702,0.392266,-1.765197
1765062749026,9.6889702,0.3530394,-1.765197
1765062749032,9.6889702,0.3530394,-1.765197
1765062749038,9.6889702,0.392266,-1.6867438000000001
1765062749044,9.6889702,0.43149259999999995,-1.8044235999999998
1765062749050,9.6889702,0.43149259999999995,-1.8044235999999998
1765062749056,9.649743599999999,0.43149259999999995,-1.8044235999999998
1765062749062,9.649743599999999,0.43149259999999995,-1.8044235999999998
1765062749068,9.7281968,0.392266,-1.8044235999999998
1765062749074,9.6889702,0.392266,-1.7259703999999998
1765062749080,9.6889702,0.392266,-1.7259703999999998
1765062749086,9.7281968,0.3530394,-1.8436502
1765062749125,9.649743599999999,0.392266,-1.8044235999999998
1765062749131,9.649743599999999,0.392266,-1.8044235999999998
1765062749137,9.7281968,0.3530394,-1.765197
1765062749143,9.7281968,0.3530394,-1.765197
1765062749149,9.610517,0.4707192,-1.7259703999999998
1765062749155,9.7281968,0.392266,-1.765197
1765062749161,9.7281968,0.392266,-1.765197
1765062749167,9.7281968,0.392266,-1.8044235999999998
1765062749173,9.7281968,0.392266,-1.8044235999999998
1765062749179,9.7281968,0.43149259999999995,-1.765197
1765062749185,9.6889702,0.43149259999999995,-1.7259703999999998
1765062749191,9.6889702,0.43149259999999995,-1.7259703999999998
1765062749197,9.6889702,0.392266,-1.8044235999999998
1765062749203,9.6889702,0.392266,-1.8044235999999998
1765062749209,9.7281968,0.392266,-1.8044235999999998
1765062749215,9.7281968,0.392266,-1.8044235999999998
1765062749221,9.6889702,0.392266,-1.8044235999999998
1765062749227,9.649743599999999,0.43149259999999995,-1.765197
1765062749233,9.649743599999999,0.43149259999999995,-1.765197
1765062749239,9.7281968,0.3530394,-1.765197
1765062749279,9.7281968,0.3530394,-1.765197
1765062749285,9.7281968,0.3530394,-1.765197
1765062749291,9.6889702,0.392266,-1.7259703999999998
1765062749297,9.7281968,0.3138128,-1.765197
1765062749303,9.7281968,0.3138128,-1.765197
1765062749309,9.7281968,0.3530394,-1.765197
1765062749315,9.7281968,0.3530394,-1.765197
1765062749321,9.7281968,0.43149259999999995,-1.765197
1765062749326,9.7281968,0.43149259999999995,-1.765197
1765062749332,9.7281968,0.3530394,-1.765197
1765062749338,9.6889702,0.392266,-1.8044235999999998
1765062749344,9.6889702,0.392266,-1.8044235999999998
1765062749350,9.649743599999999,0.43149259999999995,-1.765197
1765062749356,9.649743599999999,0.43149259999999995,-1.765197
1765062749362,9.6889702,0.43149259999999995,-1.765197
1765062749368,9.6889702,0.392266,-1.8044235999999998
1765062749374,9.6889702,0.392266,-1.8044235999999998
1765062749380,9.7281968,0.392266,-1.765197
1765062749386,9.7281968,0.392266,-1.765197
1765062749392,9.649743599999999,0.43149259999999995,-1.8044235999999998
1765062749432,9.7281968,0.392266,-1.765197
1765062749438,9.7281968,0.392266,-1.765197
1765062749444,9.6889702,0.43149259999999995,-1.8828768
1765062749450,9.6889702,0.3530394,-1.765197
1765062749456,9.6889702,0.3530394,-1.765197
1765062749462,9.649743599999999,0.4707192,-1.7259703999999998
1765062749468,9.649743599999999,0.4707192,-1.7259703999999998
1765062749474,9.649743599999999,0.5099458,-1.8044235999999998
1765062749480,9.649743599999999,0.392266,-1.765197
1765062749486,9.649743599999999,0.392266,-1.765197
1765062749492,9.649743599999999,0.392266,-1.765197
1765062749498,9.649743599999999,0.392266,-1.765197
1765062749504,9.6889702,0.392266,-1.765197
1765062749510,9.6889702,0.392266,-1.765197
1765062749516,9.6889702,0.392266,-1.8044235999999998
1765062749522,9.7281968,0.3530394,-1.765197
1765062749528,9.7281968,0.3530394,-1.765197
1765062749534,9.6889702,0.392266,-1.765197
1765062749539,9.6889702,0.392266,-1.765197
1765062749545,9.6889702,0.392266,-1.8044235999999998
1765062749585,9.6889702,0.392266,-1.8044235999999998
1765062749591,9.6889702,0.3530394,-1.8044235999999998
1765062749597,9.6889702,0.3530394,-1.8044235999999998
1765062749603,9.649743599999999,0.3530394,-1.7259703999999998
1765062749609,9.649743599999999,0.3530394,-1.7259703999999998
1765062749615,9.649743599999999,0.43149259999999995,-1.8044235999999998
1765062749621,9.649743599999999,0.43149259999999995,-1.8044235999999998
1765062749627,9.7281968,0.392266,-1.7259703999999998
1765062749633,9.6889702,0.3530394,-1.765197
1765062749639,9.6889702,0.3530394,-1.765197
1765062749645,9.649743599999999,0.392266,-1.765197
1765062749651,9.649743599999999,0.392266,-1.765197
1765062749657,9.6889702,0.392266,-1.8828768
1765062749663,9.6889702,0.392266,-1.8044235999999998
1765062749669,9.6889702,0.392266,-1.8044235999999998
1765062749675,9.6889702,0.4707192,-1.8044235999999998
1765062749681,9.6889702,0.4707192,-1.8044235999999998
1765062749687,9.6889702,0.392266,-1.8044235999999998
1765062749693,9.6889702,0.43149259999999995,-1.7259703999999998
1765062749699,9.6889702,0.43149259999999995,-1.7259703999999998
1765062749738,9.571290399999999,0.43149259999999995,-1.8044235999999998
1765062749744,9.6889702,0.392266,-1.8044235999999998
1765062749750,9.6889702,0.392266,-1.8044235999999998
1765062749756,9.6889702,0.392266,-1.765197
1765062749762,9.6889702,0.392266,-1.765197
1765062749768,9.6889702,0.392266,-1.765197
1765062749774,9.6889702,0.3530394,-1.765197
1765062749780,9.6889702,0.3530394,-1.765197
1765062749786,9.7281968,0.3530394,-1.7259703999999998
1765062749792,9.7281968,0.3530394,-1.7259703999999998
1765062749798,9.649743599999999,0.43149259999999995,-1.8044235999999998
1765062749804,9.7281968,0.3530394,-1.8436502
1765062749810,9.7281968,0.3530394,-1.8436502
1765062749816,9.7281968,0.43149259999999995,-1.765197
1765062749822,9.7281968,0.43149259999999995,-1.765197
1765062749828,9.6889702,0.43149259999999995,-1.765197
1765062749834,9.6889702,0.43149259999999995,-1.765197
1765062749840,9.6889702,0.43149259999999995,-1.8044235999999998
1765062749846,9.7281968,0.392266,-1.765197
1765062749852,9.7281968,0.392266,-1.765197
1765062749892,9.6889702,0.3530394,-1.765197
1765062749898,9.6889702,0.392266,-1.765197
1765062749904,9.6889702,0.392266,-1.765197
1765062749910,9.7281968,0.43149259999999995,-1.8044235999999998
1765062749916,9.649743599999999,0.392266,-1.765197
1765062749922,9.649743599999999,0.392266,-1.765197
1765062749928,9.649743599999999,0.392266,-1.7259703999999998
1765062749934,9.649743599999999,0.392266,-1.7259703999999998
1765062749940,9.6889702,0.3530394,-1.8044235999999998
1765062749946,9.6889702,0.43149259999999995,-1.765197
1765062749952,9.6889702,0.43149259999999995,-1.765197
1765062749958,9.6889702,0.392266,-1.8436502
1765062749964,9.6889702,0.392266,-1.8436502
1765062749970,9.6889702,0.43149259999999995,-1.765197
1765062749976,9.6889702,0.43149259999999995,-1.8044235999999998
1765062749982,9.6889702,0.43149259999999995,-1.8044235999999998
1765062749988,9.6889702,0.43149259999999995,-1.8044235999999998
1765062749994,9.6889702,0.43149259999999995,-1.8044235999999998
1765062750000,9.649743599999999,0.392266,-1.7259703999999998
1765062750006,9.649743599999999,0.392266,-1.7259703999999998
1765062750047,9.6889702,0.43149259999999995,-1.765197
1765062750053,9.6889702,0.3530394,-1.6867438000000001
1765062750059,9.649743599999999,0.43149259999999995,-1.765197
1765062750065,9.649743599999999,0.43149259999999995,-1.765197
1765062750071,9.6889702,0.392266,-1.8044235999999998
1765062750077,9.6889702,0.392266,-1.8044235999999998
1765062750083,9.610517,0.392266,-1.6475172
1765062750089,9.6889702,0.392266,-1.8044235999999998
1765062750095,9.6889702,0.392266,-1.8044235999999998
1765062750101,9.6889702,0.392266,-1.765197
1765062750107,9.6889702,0.392266,-1.765197
1765062750113,9.649743599999999,0.43149259999999995,-1.765197
1765062750119,9.6889702,0.43149259999999995,-1.765197
1765062750125,9.6889702,0.43149259999999995,-1.765197
1765062750131,9.6889702,0.3530394,-1.765197
1765062750137,9.6889702,0.3530394,-1.765197
1765062750143,9.6889702,0.43149259999999995,-1.765197
1765062750149,9.6889702,0.43149259999999995,-1.765197
1765062750155,9.6889702,0.392266,-1.8044235999999998
1765062750161,9.649743599999999,0.4707192,-1.7259703999999998
1765062750202,9.6889702,0.392266,-1.8044235999999998
1765062750208,9.6889702,0.392266,-1.8044235999999998
1765062750214,9.7281968,0.43149259999999995,-1.765197
1765062750220,9.7281968,0.43149259999999995,-1.765197
1765062750226,9.649743599999999,0.43149259999999995,-1.7259703999999998
1765062750232,9.6889702,0.3530394,-1.7259703999999998
1765062750238,9.6889702,0.3530394,-1.7259703999999998
1765062750244,9.649743599999999,0.392266,-1.765197
1765062750250,9.649743599999999,0.392266,-1.765197
1765062750256,9.649743599999999,0.4707192,-1.8044235999999998
1765062750262,9.6889702,0.3530394,-1.7259703999999998
1765062750268,9.6889702,0.3530394,-1.7259703999999998
1765062750274,9.649743599999999,0.392266,-1.8436502
1765062750280,9.649743599999999,0.392266,-1.8436502
1765062750286,9.7281968,0.43149259999999995,-1.7259703999999998
1765062750292,9.7281968,0.43149259999999995,-1.7259703999999998
1765062750298,9.7281968,0.43149259999999995,-1.7259703999999998
1765062750304,9.7281968,0.392266,-1.7259703999999998
1765062750310,9.7281968,0.392266,-1.7259703999999998
1765062750316,9.649743599999999,0.3530394,-1.7259703999999998
1765062750356,9.7281968,0.3530394,-1.7259703999999998
1765062750362,9.6889702,0.392266,-1.8044235999999998
1765062750368,9.6889702,0.392266,-1.8044235999999998
1765062750374,9.6889702,0.3530394,-1.7259703999999998
1765062750380,9.6889702,0.3530394,-1.7259703999999998
1765062750386,9.649743599999999,0.3530394,-1.7259703999999998
1765062750392,9.649743599999999,0.3530394,-1.7259703999999998
1765062750398,9.649743599999999,0.4707192,-1.765197
1765062750404,9.649743599999999,0.392266,-1.7259703999999998
1765062750410,9.649743599999999,0.392266,-1.7259703999999998
1765062750416,9.649743599999999,0.392266,-1.6867438000000001
1765062750422,9.649743599999999,0.392266,-1.6867438000000001
1765062750428,9.649743599999999,0.43149259999999995,-1.765197
1765062750434,9.649743599999999,0.43149259999999995,-1.8044235999999998
1765062750440,9.649743599999999,0.43149259999999995,-1.8044235999999998
1765062750446,9.6889702,0.392266,-1.7259703999999998
1765062750452,9.6889702,0.392266,-1.7259703999999998
1765062750458,9.6889702,0.392266,-1.7259703999999998
1765062750464,9.7281968,0.392266,-1.765197
