timestamp_ms,ax,ay,az
1765065564661,-0.43149259999999995,-9.649743599999999,-1.2552512
1765065564702,-0.392266,-9.571290399999999,-1.4121576
1765065564708,-0.4707192,-9.492837199999999,-1.2944778
1765065564714,-0.43149259999999995,-9.610517,-1.2552512
1765065564720,-0.43149259999999995,-9.610517,-1.2552512
1765065564726,-0.43149259999999995,-9.610517,-1.2160246
1765065564732,-0.43149259999999995,-9.610517,-1.2160246
1765065564738,-0.43149259999999995,-9.571290399999999,-1.2552512
1765065564744,-0.43149259999999995,-9.571290399999999,-1.2552512
1765065564750,-0.4707192,-9.610517,-1.2160246
1765065564756,-0.43149259999999995,-9.649743599999999,-1.2552512
1765065564762,-0.43149259999999995,-9.649743599999999,-1.2552512
1765065564768,-0.4707192,-9.571290399999999,-1.2552512
1765065564774,-0.4707192,-9.571290399999999,-1.2552512
1765065564780,-0.4707192,-9.610517,-1.2160246
1765065564786,-0.43149259999999995,-9.649743599999999,-1.2552512
1765065564792,-0.43149259999999995,-9.649743599999999,-1.2552512
1765065564798,-0.43149259999999995,-9.610517,-1.2160246
1765065564804,-0.43149259999999995,-9.610517,-1.2160246
1765065564810,-0.392266,-9.610517,-1.3337044
1765065564816,-0.4707192,-9.571290399999999,-1.2552512
1765065564857,-0.4707192,-9.649743599999999,-1.2944778
1765065564863,-0.4707192,-9.649743599999999,-1.2944778
1765065564869,-0.4707192,-9.571290399999999,-1.2160246
1765065564875,-0.4707192,-9.571290399999999,-1.2160246
1765065564881,-0.4707192,-9.649743599999999,-1.2944778
1765065564887,-0.4707192,-9.649743599999999,-1.2944778
1765065564893,-0.4707192,-9.649743599999999,-1.3337044
1765065564899,-0.43149259999999995,-9.610517,-1.2552512
1765065564905,-0.43149259999999995,-9.610517,-1.2552512
1765065564911,-0.4707192,-9.610517,-1.2160246
1765065564917,-0.4707192,-9.610517,-1.2160246
1765065564923,-0.43149259999999995,-9.5320638,-1.2552512
1765065564929,-0.43149259999999995,-9.610517,-1.2552512
1765065564935,-0.43149259999999995,-9.610517,-1.2552512
1765065564941,-0.392266,-9.649743599999999,-1.2160246
1765065564947,-0.392266,-9.649743599999999,-1.2160246
1765065564953,-0.392266,-9.571290399999999,-1.2552512
1765065564959,-0.4707192,-9.6889702,-1.2944778
1765065564965,-0.4707192,-9.6889702,-1.2944778
1765065564971,-0.4707192,-9.649743599999999,-1.2944778
1765065565011,-0.4707192,-9.610517,-1.2552512
1765065565017,-0.4707192,-9.610517,-1.2552512
1765065565023,-0.43149259999999995,-9.571290399999999,-1.2552512
1765065565029,-0.4707192,-9.571290399999999,-1.2944778
1765065565035,-0.4707192,-9.571290399999999,-1.2944778
1765065565041,-0.4707192,-9.610517,-1.2552512
1765065565047,-0.4707192,-9.610517,-1.2552512
1765065565053,-0.43149259999999995,-9.649743599999999,-1.2160246
1765065565059,-0.43149259999999995,-9.649743599999999,-1.2160246
1765065565065,-0.43149259999999995,-9.571290399999999,-1.1375714
1765065565071,-0.43149259999999995,-9.610517,-1.2552512
1765065565077,-0.43149259999999995,-9.610517,-1.2552512
1765065565083,-0.4707192,-9.571290399999999,-1.2944778
1765065565089,-0.4707192,-9.571290399999999,-1.2944778
1765065565095,-0.3530394,-9.6889702,-1.2552512
1765065565101,-0.43149259999999995,-9.610517,-1.2552512
1765065565107,-0.43149259999999995,-9.610517,-1.2552512
1765065565113,-0.5099458,-9.649743599999999,-1.2552512
1765065565119,-0.5099458,-9.649743599999999,-1.2552512
1765065565125,-0.43149259999999995,-9.610517,-1.2552512
1765065565165,-0.392266,-9.6889702,-1.2552512
1765065565171,-0.43149259999999995,-9.610517,-1.2160246
1765065565177,-0.43149259999999995,-9.610517,-1.2160246
1765065565183,-0.392266,-9.649743599999999,-1.2552512
1765065565189,-0.392266,-9.649743599999999,-1.2552512
1765065565195,-0.4707192,-9.649743599999999,-1.2552512
1765065565201,-0.4707192,-9.649743599999999,-1.2552512
1765065565207,-0.43149259999999995,-9.649743599999999,-1.2160246
1765065565213,-0.43149259999999995,-9.610517,-1.2552512
1765065565219,-0.43149259999999995,-9.610517,-1.2552512
1765065565225,-0.392266,-9.649743599999999,-1.2160246
1765065565231,-0.392266,-9.649743599999999,-1.2160246
1765065565237,-0.392266,-9.7674234,-1.2944778
1765065565243,-0.4707192,-9.610517,-1.2944778
1765065565249,-0.4707192,-9.610517,-1.2944778
1765065565255,-0.4707192,-9.610517,-1.2160246
1765065565261,-0.4707192,-9.610517,-1.2160246
1765065565267,-0.4707192,-9.649743599999999,-1.2160246
1765065565273,-0.43149259999999995,-9.610517,-1.2552512
1765065565279,-0.43149259999999995,-9.610517,-1.2552512
1765065565320,-0.43149259999999995,-9.610517,-1.2944778
1765065565326,-0.43149259999999995,-9.610517,-1.2552512
1765065565332,-0.43149259999999995,-9.610517,-1.2552512
1765065565338,-0.43149259999999995,-9.610517,-1.3337044
1765065565344,-0.4707192,-9.649743599999999,-1.2552512
1765065565350,-0.4707192,-9.649743599999999,-1.2552512
1765065565356,-0.4707192,-9.610517,-1.1767979999999998
1765065565362,-0.4707192,-9.610517,-1.1767979999999998
1765065565368,-0.43149259999999995,-9.649743599999999,-1.2944778
1765065565374,-0.43149259999999995,-9.649743599999999,-1.2944778
1765065565380,-0.43149259999999995,-9.649743599999999,-1.3337044
1765065565386,-0.392266,-9.649743599999999,-1.2552512
1765065565392,-0.392266,-9.649743599999999,-1.2552512
1765065565398,-0.4707192,-9.649743599999999,-1.2944778
1765065565404,-0.4707192,-9.649743599999999,-1.2944778
1765065565410,-0.43149259999999995,-9.649743599999999,-1.1767979999999998
1765065565416,-0.4707192,-9.649743599999999,-1.2552512
1765065565422,-0.4707192,-9.649743599999999,-1.2552512
1765065565428,-0.4707192,-9.649743599999999,-1.2552512
1765065565434,-0.4707192,-9.649743599999999,-1.2552512
1765065565474,-0.43149259999999995,-9.610517,-1.2160246
1765065565480,-0.43149259999999995,-9.571290399999999,-1.2944778
1765065565486,-0.4707192,-9.571290399999999,-1.2160246
1765065565492,-0.4707192,-9.571290399999999,-1.2160246
1765065565498,-0.4707192,-9.610517,-1.2160246
1765065565504,-0.4707192,-9.610517,-1.2160246
1765065565510,-0.392266,-9.610517,-1.2944778
1765065565516,-0.392266,-9.610517,-1.2944778
1765065565522,-0.5099458,-9.6889702,-1.1767979999999998
1765065565528,-0.43149259999999995,-9.571290399999999,-1.2160246
1765065565534,-0.43149259999999995,-9.571290399999999,-1.2160246
1765065565540,-0.43149259999999995,-9.610517,-1.2160246
1765065565546,-0.43149259999999995,-9.610517,-1.2160246
1765065565552,-0.43149259999999995,-9.6889702,-1.2552512
1765065565558,-0.4707192,-9.649743599999999,-1.2160246
1765065565564,-0.4707192,-9.649743599999999,-1.2160246
1765065565570,-0.43149259999999995,-9.571290399999999,-1.2552512
1765065565576,-0.43149259999999995,-9.571290399999999,-1.2552512
1765065565582,-0.4707192,-9.6889702,-1.2944778
1765065565588,-0.4707192,-9.649743599999999,-1.2160246
1765065565628,-0.5099458,-9.6889702,-1.2160246
1765065565634,-0.5099458,-9.6889702,-1.2160246
1765065565640,-0.43149259999999995,-9.571290399999999,-1.2160246
1765065565646,-0.43149259999999995,-9.571290399999999,-1.2160246
1765065565652,-0.43149259999999995,-9.610517,-1.2552512
1765065565658,-0.4707192,-9.649743599999999,-1.2552512
1765065565664,-0.4707192,-9.649743599999999,-1.2552512
1765065565670,-0.392266,-9.571290399999999,-1.1767979999999998
1765065565676,-0.392266,-9.571290399999999,-1.1767979999999998
1765065565682,-0.4707192,-9.610517,-1.2552512
1765065565688,-0.4707192,-9.610517,-1.2552512
1765065565694,-0.392266,-9.571290399999999,-1.2552512
1765065565700,-0.4707192,-9.649743599999999,-1.2552512
1765065565706,-0.4707192,-9.649743599999999,-1.2552512
1765065565712,-0.5099458,-9.571290399999999,-1.2552512
1765065565718,-0.5099458,-9.571290399999999,-1.2552512
1765065565724,-0.43149259999999995,-9.571290399999999,-1.1767979999999998
1765065565730,-0.392266,-9.610517,-1.2552512
1765065565736,-0.392266,-9.610517,-1.2552512
1765065565742,-0.43149259999999995,-9.649743599999999,-1.2160246
1765065565783,-0.43149259999999995,-9.649743599999999,-1.2160246
1765065565789,-0.43149259999999995,-9.649743599999999,-1.2160246
1765065565795,-0.5099458,-9.649743599999999,-1.2160246
1765065565801,-0.4707192,-9.610517,-1.2552512
1765065565807,-0.4707192,-9.610517,-1.2552512
1765065565813,-0.4707192,-9.649743599999999,-1.2160246
1765065565819,-0.4707192,-9.649743599999999,-1.2160246
1765065565825,-0.43149259999999995,-9.610517,-1.2552512
1765065565831,-0.43149259999999995,-9.610517,-1.2552512
1765065565837,-0.4707192,-9.610517,-1.2552512
1765065565843,-0.5099458,-9.571290399999999,-1.2160246
1765065565849,-0.5099458,-9.571290399999999,-1.2160246
1765065565855,-0.4707192,-9.649743599999999,-1.2552512
1765065565861,-0.4707192,-9.649743599999999,-1.2552512
1765065565867,-0.392266,-9.610517,-1.1767979999999998
1765065565873,-0.43149259999999995,-9.649743599999999,-1.1767979999999998
1765065565879,-0.43149259999999995,-9.649743599999999,-1.1767979999999998
1765065565885,-0.4707192,-9.610517,-1.2552512
1765065565891,-0.4707192,-9.610517,-1.2552512
1765065565897,-0.392266,-9.649743599999999,-1.2160246
1765065565938,-0.43149259999999995,-9.649743599999999,-1.3337044
1765065565944,-0.43149259999999995,-9.649743599999999,-1.2160246
1765065565950,-0.43149259999999995,-9.649743599999999,-1.2160246
1765065565956,-0.3530394,-9.610517,-1.2160246
1765065565962,-0.3530394,-9.610517,-1.2160246
1765065565968,-0.43149259999999995,-9.610517,-1.2552512
1765065565974,-0.43149259999999995,-9.610517,-1.2552512
1765065565980,-0.43149259999999995,-9.610517,-1.2552512
1765065565986,-0.5099458,-9.571290399999999,-1.2160246
1765065565992,-0.5099458,-9.571290399999999,-1.2160246
1765065565998,-0.4707192,-9.5320638,-1.2552512
1765065566004,-0.43149259999999995,-9.610517,-1.2552512
1765065566010,-0.43149259999999995,-9.610517,-1.2552512
1765065566016,-0.4707192,-9.649743599999999,-1.1767979999999998
1765065566022,-0.4707192,-9.649743599999999,-1.1767979999999998
1765065566028,-0.43149259999999995,-9.610517,-1.1767979999999998
1765065566034,-0.43149259999999995,-9.610517,-1.1767979999999998
1765065566040,-0.392266,-9.610517,-1.2552512
1765065566046,-0.392266,-9.649743599999999,-1.2160246
1765065566052,-0.392266,-9.649743599999999,-1.2160246
1765065566092,-0.43149259999999995,-9.649743599999999,-1.2552512
1765065566098,-0.5099458,-9.610517,-1.2160246
1765065566104,-0.5099458,-9.610517,-1.2160246
1765065566110,-0.43149259999999995,-9.610517,-1.2552512
1765065566116,-0.43149259999999995,-9.571290399999999,-1.2944778
1765065566122,-0.43149259999999995,-9.571290399999999,-1.2944778
1765065566128,-0.43149259999999995,-9.610517,-1.2552512
1765065566134,-0.43149259999999995,-9.610517,-1.2552512
1765065566140,-0.392266,-9.610517,-1.1767979999999998
1765065566146,-0.43149259999999995,-9.610517,-1.2944778
1765065566152,-0.43149259999999995,-9.610517,-1.2944778
1765065566158,-0.4707192,-9.571290399999999,-1.2552512
1765065566164,-0.4707192,-9.571290399999999,-1.2552512
1765065566170,-0.4707192,-9.610517,-1.2944778
1765065566176,-0.4707192,-9.610517,-1.1767979999999998
1765065566182,-0.4707192,-9.610517,-1.1767979999999998
1765065566188,-0.4707192,-9.571290399999999,-1.1767979999999998
1765065566194,-0.4707192,-9.571290399999999,-1.1767979999999998
1765065566200,-0.4707192,-9.610517,-1.2160246
