timestamp_ms,ax,ay,az
1765065729279,-9.3751574,3.4911673999999997,1.6082906
1765065729370,-9.2967042,3.4127142,1.6475172
1765065729376,-9.2967042,3.4127142,1.6475172
1765065729382,-9.3359308,3.4519407999999996,1.6475172
1765065729388,-9.3359308,3.4127142,1.6082906
1765065729394,-9.3359308,3.4127142,1.6082906
1765065729400,-9.2967042,3.4911673999999997,1.6082906
1765065729406,-9.2967042,3.4911673999999997,1.6082906
1765065729412,-9.2967042,3.4911673999999997,1.6475172
1765065729418,-9.2967042,3.4911673999999997,1.6475172
1765065729424,-9.3359308,3.4911673999999997,1.6082906
1765065729430,-9.3751574,3.4911673999999997,1.6082906
1765065729436,-9.3751574,3.4911673999999997,1.6082906
1765065729442,-9.3359308,3.4519407999999996,1.6082906
1765065729448,-9.3359308,3.4519407999999996,1.6082906
1765065729454,-9.3359308,3.4519407999999996,1.569064
1765065729460,-9.3359308,3.4519407999999996,1.6082906
1765065729466,-9.3359308,3.4519407999999996,1.6082906
1765065729472,-9.2967042,3.4519407999999996,1.6475172
1765065729478,-9.2967042,3.4519407999999996,1.6475172
1765065729484,-9.3751574,3.4519407999999996,1.6082906
1765065729525,-9.3359308,3.4911673999999997,1.6082906
1765065729531,-9.3359308,3.4519407999999996,1.6082906
1765065729537,-9.3359308,3.4519407999999996,1.6082906
1765065729543,-9.2967042,3.4519407999999996,1.6475172
1765065729549,-9.2967042,3.4519407999999996,1.6475172
1765065729555,-9.2967042,3.4911673999999997,1.6082906
1765065729561,-9.2967042,3.4519407999999996,1.6082906
1765065729567,-9.2967042,3.4519407999999996,1.6082906
1765065729573,-9.3359308,3.4519407999999996,1.6475172
1765065729579,-9.3359308,3.4519407999999996,1.6475172
1765065729585,-9.3751574,3.4911673999999997,1.6867438000000001
1765065729591,-9.3751574,3.4911673999999997,1.6867438000000001
1765065729597,-9.3359308,3.4519407999999996,1.6082906
1765065729603,-9.3359308,3.4911673999999997,1.569064
1765065729609,-9.3359308,3.4911673999999997,1.569064
1765065729615,-9.3359308,3.4519407999999996,1.6867438000000001
1765065729621,-9.3359308,3.4519407999999996,1.6867438000000001
1765065729627,-9.3359308,3.4127142,1.569064
1765065729633,-9.3751574,3.4519407999999996,1.6475172
1765065729639,-9.3751574,3.4519407999999996,1.6475172
1765065729679,-9.3751574,3.4911673999999997,1.6867438000000001
1765065729685,-9.3751574,3.4911673999999997,1.6475172
1765065729691,-9.3751574,3.4911673999999997,1.6475172
1765065729697,-9.3359308,3.4519407999999996,1.765197
1765065729703,-9.3359308,3.4519407999999996,1.6475172
1765065729709,-9.3359308,3.4519407999999996,1.6475172
1765065729715,-9.3359308,3.4519407999999996,1.6475172
1765065729721,-9.3359308,3.4519407999999996,1.6475172
1765065729727,-9.3751574,3.4127142,1.6082906
1765065729733,-9.3359308,3.4911673999999997,1.6867438000000001
1765065729739,-9.3359308,3.4911673999999997,1.6867438000000001
1765065729745,-9.2574776,3.4911673999999997,1.569064
1765065729751,-9.2574776,3.4911673999999997,1.569064
1765065729757,-9.2967042,3.4519407999999996,1.6475172
1765065729763,-9.2967042,3.4519407999999996,1.6475172
1765065729769,-9.3359308,3.4127142,1.6867438000000001
1765065729775,-9.2967042,3.4519407999999996,1.6475172
1765065729781,-9.2967042,3.4519407999999996,1.6475172
1765065729787,-9.3751574,3.530394,1.6082906
1765065729793,-9.3751574,3.530394,1.6082906
1765065729833,-9.3359308,3.4911673999999997,1.6475172
1765065729839,-9.2967042,3.530394,1.7259703999999998
1765065729845,-9.3359308,3.4519407999999996,1.6475172
1765065729851,-9.3359308,3.4519407999999996,1.6475172
1765065729857,-9.2967042,3.530394,1.6475172
1765065729863,-9.2967042,3.530394,1.6475172
1765065729869,-9.3751574,3.530394,1.6475172
1765065729875,-9.3359308,3.4127142,1.6082906
1765065729881,-9.3359308,3.4127142,1.6082906
1765065729887,-9.3751574,3.4911673999999997,1.6082906
1765065729893,-9.3751574,3.4911673999999997,1.6082906
1765065729899,-9.2967042,3.530394,1.6867438000000001
1765065729905,-9.2967042,3.530394,1.6867438000000001
1765065729911,-9.3359308,3.530394,1.6082906
1765065729917,-9.3751574,3.4519407999999996,1.6475172
1765065729923,-9.3751574,3.4519407999999996,1.6475172
1765065729929,-9.3359308,3.4519407999999996,1.6867438000000001
1765065729935,-9.3359308,3.4519407999999996,1.6867438000000001
1765065729941,-9.2967042,3.4911673999999997,1.6475172
1765065729947,-9.3359308,3.4519407999999996,1.6082906
1765065729988,-9.3359308,3.4911673999999997,1.6475172
1765065729994,-9.3359308,3.4911673999999997,1.6475172
1765065730000,-9.3359308,3.4519407999999996,1.569064
1765065730006,-9.3359308,3.4519407999999996,1.569064
1765065730012,-9.2574776,3.4519407999999996,1.6082906
1765065730018,-9.2967042,3.4911673999999997,1.6475172
1765065730024,-9.2967042,3.4911673999999997,1.6475172
1765065730030,-9.2967042,3.4519407999999996,1.6082906
1765065730036,-9.2967042,3.4519407999999996,1.6082906
1765065730042,-9.3751574,3.4519407999999996,1.6082906
1765065730048,-9.2967042,3.4519407999999996,1.6475172
1765065730054,-9.2967042,3.4519407999999996,1.6475172
1765065730060,-9.3359308,3.4519407999999996,1.6475172
1765065730066,-9.3359308,3.4519407999999996,1.6475172
1765065730072,-9.3359308,3.4519407999999996,1.6475172
1765065730078,-9.3359308,3.4519407999999996,1.6475172
1765065730084,-9.3359308,3.4519407999999996,1.6867438000000001
1765065730090,-9.3359308,3.4911673999999997,1.6082906
1765065730096,-9.3359308,3.4911673999999997,1.6082906
1765065730102,-9.3359308,3.4127142,1.6475172
1765065730142,-9.3751574,3.4911673999999997,1.6082906
1765065730148,-9.3751574,3.4911673999999997,1.6082906
1765065730154,-9.3359308,3.4911673999999997,1.6082906
1765065730160,-9.2967042,3.4519407999999996,1.6475172
1765065730166,-9.2967042,3.4519407999999996,1.6475172
1765065730172,-9.3751574,3.4911673999999997,1.6082906
1765065730178,-9.3751574,3.4911673999999997,1.6082906
1765065730184,-9.3359308,3.6088471999999996,1.6082906
1765065730190,-9.3359308,3.4519407999999996,1.569064
1765065730196,-9.3359308,3.4519407999999996,1.569064
1765065730202,-9.3359308,3.4911673999999997,1.6082906
1765065730208,-9.3359308,3.4911673999999997,1.6082906
1765065730214,-9.3751574,3.530394,1.6475172
1765065730220,-9.3751574,3.4519407999999996,1.6082906
1765065730226,-9.3751574,3.4519407999999996,1.6082906
1765065730232,-9.3359308,3.4519407999999996,1.6475172
1765065730238,-9.3359308,3.4519407999999996,1.6475172
1765065730244,-9.3751574,3.4911673999999997,1.569064
1765065730250,-9.3751574,3.4911673999999997,1.569064
1765065730256,-9.2574776,3.4127142,1.6082906
1765065730297,-9.3751574,3.4911673999999997,1.6082906
1765065730303,-9.3359308,3.4519407999999996,1.6475172
1765065730309,-9.3359308,3.4519407999999996,1.6475172
1765065730315,-9.3359308,3.530394,1.6082906
1765065730321,-9.3359308,3.530394,1.6082906
1765065730327,-9.3751574,3.4127142,1.5298374
1765065730333,-9.2574776,3.4519407999999996,1.6867438000000001
1765065730339,-9.2574776,3.4519407999999996,1.6867438000000001
1765065730345,-9.3359308,3.4519407999999996,1.6082906
1765065730351,-9.3359308,3.4519407999999996,1.6082906
1765065730357,-9.414383999999998,3.4911673999999997,1.569064
1765065730363,-9.2967042,3.4519407999999996,1.6475172
1765065730369,-9.2967042,3.4519407999999996,1.6475172
1765065730375,-9.2967042,3.4911673999999997,1.6475172
1765065730381,-9.2967042,3.4911673999999997,1.6475172
1765065730387,-9.3751574,3.530394,1.6082906
1765065730393,-9.2967042,3.4519407999999996,1.6475172
1765065730399,-9.2967042,3.4519407999999996,1.6475172
1765065730405,-9.2967042,3.4911673999999997,1.6082906
1765065730411,-9.2967042,3.4911673999999997,1.6082906
1765065730452,-9.2574776,3.4519407999999996,1.6475172
1765065730458,-9.3751574,3.4911673999999997,1.6082906
1765065730464,-9.3751574,3.4519407999999996,1.6082906
1765065730470,-9.3751574,3.4519407999999996,1.6082906
1765065730476,-9.3359308,3.530394,1.6475172
1765065730482,-9.3359308,3.530394,1.6475172
1765065730488,-9.2967042,3.4127142,1.569064
1765065730494,-9.2967042,3.4127142,1.6082906
1765065730500,-9.2967042,3.4127142,1.6082906
1765065730506,-9.3751574,3.3734876000000003,1.6082906
1765065730512,-9.3751574,3.3734876000000003,1.6082906
1765065730518,-9.2574776,3.4127142,1.6082906
1765065730524,-9.2574776,3.4127142,1.6082906
1765065730530,-9.2967042,3.4519407999999996,1.6867438000000001
1765065730536,-9.3359308,3.4911673999999997,1.6082906
1765065730542,-9.3359308,3.4911673999999997,1.6082906
1765065730548,-9.3359308,3.530394,1.6867438000000001
1765065730554,-9.3359308,3.530394,1.6867438000000001
1765065730560,-9.414383999999998,3.4911673999999997,1.6867438000000001
1765065730566,-9.218251,3.4519407999999996,1.6082906
1765065730606,-9.3359308,3.4519407999999996,1.5298374
1765065730612,-9.3359308,3.4519407999999996,1.5298374
1765065730618,-9.3359308,3.4519407999999996,1.6082906
1765065730624,-9.3359308,3.4519407999999996,1.6082906
1765065730630,-9.2967042,3.530394,1.6867438000000001
1765065730636,-9.2574776,3.4911673999999997,1.6867438000000001
1765065730642,-9.2574776,3.4911673999999997,1.6867438000000001
1765065730648,-9.2967042,3.4127142,1.6475172
1765065730654,-9.2967042,3.4127142,1.6475172
1765065730660,-9.414383999999998,3.4911673999999997,1.6867438000000001
1765065730666,-9.3359308,3.4519407999999996,1.6082906
1765065730672,-9.3359308,3.4519407999999996,1.6082906
1765065730678,-9.3359308,3.4519407999999996,1.6475172
1765065730684,-9.3359308,3.4519407999999996,1.6475172
1765065730690,-9.3359308,3.4911673999999997,1.6082906
1765065730696,-9.3359308,3.4911673999999997,1.6082906
1765065730702,-9.3359308,3.530394,1.6082906
1765065730708,-9.3359308,3.530394,1.6867438000000001
1765065730714,-9.3359308,3.530394,1.6867438000000001
1765065730720,-9.2574776,3.4911673999999997,1.6867438000000001
1765065730761,-9.2967042,3.4519407999999996,1.6475172
1765065730767,-9.2967042,3.4519407999999996,1.6475172
1765065730773,-9.2967042,3.4519407999999996,1.6082906
1765065730779,-9.2967042,3.4519407999999996,1.6082906
1765065730785,-9.2967042,3.4519407999999996,1.6082906
1765065730791,-9.2967042,3.4127142,1.6082906
1765065730797,-9.2967042,3.4127142,1.6082906
1765065730803,-9.3359308,3.4127142,1.569064
1765065730809,-9.3359308,3.4519407999999996,1.6475172
1765065730815,-9.3359308,3.4519407999999996,1.6475172
1765065730821,-9.2967042,3.4519407999999996,1.569064
1765065730827,-9.2967042,3.4519407999999996,1.569064
1765065730833,-9.2967042,3.4127142,1.6082906
1765065730839,-9.2967042,3.4127142,1.6082906
1765065730845,-9.3751574,3.4911673999999997,1.6475172
1765065730851,-9.3359308,3.4519407999999996,1.6082906
1765065730857,-9.3359308,3.4519407999999996,1.6082906
1765065730863,-9.3359308,3.4519407999999996,1.6082906
1765065730869,-9.3359308,3.4519407999999996,1.6082906
