timestamp_ms,ax,ay,az
1765061480086,6.4331624,7.0215613999999995,-1.2944778
1765061480127,6.001669799999999,8.5121722,-1.1375714
1765061480133,5.2563644,8.0806796,-1.0591182
1765061480139,5.2563644,8.0806796,-1.0591182
1765061480145,4.8640984,7.9237732,-0.8629851999999999
1765061480151,4.8640984,7.9237732,-0.8629851999999999
1765061480157,4.785645199999999,7.7276402,-0.8629851999999999
1765061480163,5.0210048,7.4922806,-1.0198916
1765061480169,5.0210048,7.4922806,-1.0198916
1765061480175,5.295591,7.4138274,-0.9414384
1765061480181,5.295591,7.4138274,-0.9414384
1765061480187,5.8055368,7.609960399999999,-1.0591182
1765061480193,5.8447634,7.8060934,-1.0983448
1765061480199,5.8447634,7.8060934,-1.0983448
1765061480205,5.4917240000000005,8.041453,-0.8237586
1765061480211,5.4917240000000005,8.041453,-0.8237586
1765061480217,5.7663101999999995,7.8060934,-0.9022117999999999
1765061480223,5.687856999999999,7.6884136,-0.8629851999999999
1765061480229,5.687856999999999,7.6884136,-0.8629851999999999
1765061480235,5.687856999999999,8.1983594,-1.0983448
1765061480241,5.687856999999999,8.1983594,-1.0983448
1765061480281,4.6679654,8.1591328,-0.6276256
1765061480287,4.746418599999999,8.3552658,-0.6668522
1765061480293,5.0602314,8.8652116,-0.7453053999999999
1765061480299,5.0602314,8.8652116,-0.7453053999999999
1765061480305,4.4718324,8.747531799999999,-1.0198916
1765061480311,4.4718324,8.747531799999999,-1.0198916
1765061480317,5.0210048,8.7867584,-1.0983448
1765061480323,5.0210048,8.7867584,-1.0983448
1765061480329,4.6287388,8.2768126,-0.9414384
1765061480335,5.1386845999999995,8.2768126,-1.1767979999999998
1765061480341,5.1386845999999995,8.2768126,-1.1767979999999998
1765061480347,5.4917240000000005,7.7276402,-0.8629851999999999
1765061480353,5.4917240000000005,7.7276402,-0.8629851999999999
1765061480359,4.707191999999999,7.8845466,-0.8237586
1765061480365,4.8248717999999995,8.7083052,-1.0198916
1765061480371,4.8248717999999995,8.7083052,-1.0198916
1765061480377,4.1972461999999995,8.669078599999999,-0.9022117999999999
1765061480383,4.1972461999999995,8.669078599999999,-0.9022117999999999
1765061480389,4.3541526,8.9436648,-1.0198916
1765061480395,4.1972461999999995,9.1397978,-0.980665
1765061480436,3.726527,8.0022264,-1.0198916
1765061480442,3.726527,8.0022264,-1.0198916
1765061480448,4.118792999999999,8.237585999999999,-0.9414384
1765061480454,4.118792999999999,8.237585999999999,-0.9414384
1765061480460,4.5502856,8.1983594,-1.0198916
1765061480466,4.5502856,8.1983594,-1.0198916
1765061480472,4.6287388,8.5513988,-1.0591182
1765061480478,4.4326058,8.5513988,-0.980665
1765061480484,4.4326058,8.5513988,-0.980665
1765061480490,4.158019599999999,8.4729456,-0.980665
1765061480496,4.158019599999999,8.4729456,-0.980665
1765061480502,2.9027684,9.1790244,-1.0198916
1765061480508,3.2165812,9.7281968,-1.0591182
1765061480514,3.2165812,9.7281968,-1.0591182
1765061480520,3.7657536,9.6889702,-0.980665
1765061480526,3.7657536,9.6889702,-0.980665
1765061480532,4.158019599999999,9.649743599999999,-1.0591182
1765061480538,4.3933792,8.825985,-1.1767979999999998
1765061480544,4.3933792,8.825985,-1.1767979999999998
1765061480550,4.707191999999999,7.9629998,-1.3337044
1765061480590,3.8834334,8.5513988,-0.980665
1765061480596,3.8834334,8.5513988,-0.980665
1765061480602,3.726527,8.747531799999999,-1.0591182
1765061480608,3.726527,8.747531799999999,-1.0591182
1765061480614,2.7458620000000002,8.7867584,-1.2160246
1765061480620,3.334261,8.825985,-1.0591182
1765061480626,3.334261,8.825985,-1.0591182
1765061480632,3.8834334,9.2574776,-1.2160246
1765061480638,3.8834334,9.2574776,-1.2160246
1765061480644,4.0403398,9.610517,-1.3337044
1765061480650,4.2364728,9.3751574,-1.3337044
1765061480656,4.2364728,9.3751574,-1.3337044
1765061480662,4.4326058,9.1790244,-1.4121576
1765061480668,4.4326058,9.1790244,-1.4121576
1765061480674,4.0795664,8.9436648,-1.7259703999999998
1765061480680,3.530394,8.3552658,-1.5298374
1765061480686,3.530394,8.3552658,-1.5298374
1765061480692,4.118792999999999,8.669078599999999,-1.569064
1765061480698,4.118792999999999,8.669078599999999,-1.569064
1765061480704,4.2364728,8.7867584,-1.6867438000000001
1765061480745,2.8635417999999997,10.0420096,-1.765197
1765061480751,3.3734876000000003,10.3558224,-1.8044235999999998
1765061480757,3.3734876000000003,10.3558224,-1.8044235999999998
1765061480763,3.726527,9.9635564,-1.6867438000000001
1765061480769,3.726527,9.9635564,-1.6867438000000001
1765061480775,3.9618866,9.6889702,-1.7259703999999998
1765061480781,3.9618866,9.6889702,-1.7259703999999998
1765061480787,3.726527,9.3359308,-1.6867438000000001
1765061480793,3.92266,9.3751574,-1.5298374
1765061480799,3.92266,9.3751574,-1.5298374
1765061480805,3.6873004,9.6889702,-1.6475172
1765061480811,3.6873004,9.6889702,-1.6475172
1765061480817,3.334261,10.002782999999999,-1.6082906
1765061480823,3.530394,10.0812362,-1.8044235999999998
1765061480829,3.530394,10.0812362,-1.8044235999999998
1765061480835,3.6873004,9.9635564,-1.8436502
1765061480841,3.6873004,9.9635564,-1.8436502
1765061480847,3.7657536,9.649743599999999,-1.765197
1765061480853,3.8442068,9.414383999999998,-1.8044235999999998
1765061480858,3.8442068,9.414383999999998,-1.8044235999999998
1765061480899,3.2950344,9.1397978,-1.7259703999999998
1765061480905,3.2950344,9.492837199999999,-1.8044235999999998
1765061480911,3.2950344,9.492837199999999,-1.8044235999999998
1765061480917,3.2558078,9.649743599999999,-1.9221034
1765061480923,3.2558078,9.649743599999999,-1.9221034
1765061480929,2.7850886,9.610517,-1.96133
1765061480935,3.334261,9.414383999999998,-1.8828768
1765061480941,3.334261,9.414383999999998,-1.8828768
1765061480947,3.92266,8.7083052,-1.8828768
1765061480953,3.92266,8.7083052,-1.8828768
1765061480959,3.6088471999999996,8.9828914,-1.8436502
1765061480965,3.6480737999999997,9.649743599999999,-2.0005566
1765061480971,3.6480737999999997,9.649743599999999,-2.0005566
1765061480977,3.334261,9.571290399999999,-1.9221034
1765061480983,3.334261,9.571290399999999,-1.9221034
1765061480989,3.138128,9.7674234,-1.9221034
1765061480995,3.2165812,9.80665,-1.96133
1765061481001,3.2165812,9.80665,-1.96133
1765061481007,3.138128,9.845876599999999,-2.0790097999999997
1765061481013,3.138128,9.845876599999999,-2.0790097999999997
1765061481053,3.4519407999999996,9.414383999999998,-2.1182364
1765061481059,3.6873004,9.9635564,-2.157463
1765061481065,3.6873004,9.9635564,-2.157463
1765061481071,3.5696205999999995,9.7674234,-2.1966896
1765061481077,3.4519407999999996,9.7674234,-2.1966896
1765061481083,3.4519407999999996,9.7674234,-2.1966896
1765061481089,3.6088471999999996,10.0420096,-2.2751428
1765061481095,3.6088471999999996,10.0420096,-2.2751428
1765061481101,3.530394,10.0812362,-2.1966896
1765061481107,3.0204481999999997,10.0812362,-2.3143694
1765061481113,3.0204481999999997,10.0812362,-2.3143694
1765061481119,3.138128,10.0420096,-2.2359162
1765061481125,3.138128,10.0420096,-2.2359162
1765061481131,3.4519407999999996,9.845876599999999,-2.157463
1765061481137,3.5696205999999995,9.414383999999998,-2.0790097999999997
1765061481143,3.5696205999999995,9.414383999999998,-2.0790097999999997
1765061481149,3.726527,9.3359308,-2.1182364
1765061481155,3.726527,9.3359308,-2.1182364
1765061481161,3.5696205999999995,9.1397978,-2.1182364
1765061481167,3.4127142,9.3359308,-2.0005566
1765061481208,2.8243152,9.610517,-1.96133
1765061481214,2.8243152,9.610517,-1.96133
1765061481220,3.0596748,9.492837199999999,-1.8436502
1765061481226,3.0596748,9.492837199999999,-1.8436502
1765061481232,3.4127142,9.610517,-1.9221034
1765061481238,3.6088471999999996,9.2967042,-1.9221034
1765061481244,3.6088471999999996,9.2967042,-1.9221034
1765061481250,3.6873004,9.022118,-2.0005566
1765061481256,3.6873004,9.022118,-2.0005566
1765061481262,3.138128,9.022118,-2.0790097999999997
1765061481268,3.138128,9.022118,-2.0790097999999997
1765061481274,3.2558078,9.1397978,-2.0790097999999997
1765061481280,3.4911673999999997,9.6889702,-2.1182364
1765061481286,3.4911673999999997,9.6889702,-2.1182364
1765061481292,3.4911673999999997,9.7281968,-2.1966896
1765061481298,3.4911673999999997,9.7281968,-2.1966896
1765061481304,3.4127142,9.649743599999999,-2.1966896
1765061481310,3.2165812,9.924329799999999,-2.2359162
1765061481316,3.2165812,9.924329799999999,-2.2359162
1765061481322,3.0204481999999997,10.002782999999999,-2.3143694
1765061481363,3.726527,9.1005712,-2.2751428
1765061481369,3.726527,9.1005712,-2.2751428
1765061481375,3.4911673999999997,9.3359308,-2.1966896
1765061481381,3.0596748,9.492837199999999,-2.1966896
1765061481387,3.0596748,9.492837199999999,-2.1966896
1765061481393,3.138128,9.571290399999999,-2.3143694
1765061481399,3.138128,9.571290399999999,-2.3143694
1765061481405,3.138128,9.414383999999998,-2.1966896
1765061481411,3.138128,9.414383999999998,-2.1966896
1765061481417,3.0204481999999997,9.571290399999999,-2.1966896
1765061481423,3.0204481999999997,9.610517,-2.157463
1765061481429,3.0204481999999997,9.610517,-2.157463
1765061481435,3.2165812,9.2574776,-2.0790097999999997
1765061481441,3.2165812,9.2574776,-2.0790097999999997
1765061481447,3.6873004,9.3359308,-2.2359162
1765061481453,3.8049801999999997,9.571290399999999,-2.3143694
1765061481459,3.8049801999999997,9.571290399999999,-2.3143694
1765061481465,3.6480737999999997,9.5320638,-2.3143694
1765061481471,3.6480737999999997,9.5320638,-2.3143694
1765061481477,3.4127142,9.571290399999999,-2.1966896
1765061481517,4.0011132,9.80665,-2.4320492
1765061481523,4.0403398,9.1790244,-2.2751428
1765061481529,4.0403398,9.1790244,-2.2751428
1765061481535,3.6480737999999997,9.218251,-2.2359162
1765061481541,3.6480737999999997,9.218251,-2.2359162
1765061481547,3.6480737999999997,9.924329799999999,-2.3928225999999997
1765061481553,3.8834334,9.80665,-2.3535959999999996
1765061481559,3.8834334,9.80665,-2.3535959999999996
1765061481565,3.8049801999999997,9.4536106,-2.1966896
1765061481571,3.8049801999999997,9.4536106,-2.1966896
1765061481577,3.530394,9.1005712,-1.9221034
1765061481583,3.530394,9.1005712,-1.9221034
1765061481589,3.4127142,9.1397978,-1.8044235999999998
1765061481595,3.4127142,9.571290399999999,-1.9221034
1765061481601,3.4127142,9.571290399999999,-1.9221034
1765061481607,3.0204481999999997,9.2967042,-1.6082906
1765061481613,3.0204481999999997,9.2967042,-1.6082906
1765061481619,3.334261,9.1790244,-1.569064
1765061481625,3.4127142,9.218251,-1.4906107999999998
