timestamp_ms,ax,ay,az
1765065010998,2.1966896,-7.6491869999999995,0.2745862
1765065011039,1.765197,-6.4331624,0.2353596
1765065011045,1.765197,-6.4331624,0.2353596
1765065011051,1.6082906,-6.864655,0.2353596
1765065011057,1.6082906,-6.864655,0.2353596
1765065011063,1.8044235999999998,-7.6884136,0.1176798
1765065011069,1.8044235999999998,-7.6884136,0.1176798
1765065011075,2.1966896,-8.669078599999999,0.1176798
1765065011081,2.4712758,-9.2967042,0.43149259999999995
1765065011087,2.4712758,-9.2967042,0.43149259999999995
1765065011093,3.2558078,-9.1397978,0.3530394
1765065011099,3.2558078,-9.1397978,0.3530394
1765065011105,3.8442068,-9.1005712,0.196133
1765065011111,3.4519407999999996,-8.9828914,0.43149259999999995
1765065011117,3.4519407999999996,-8.9828914,0.43149259999999995
1765065011123,2.8635417999999997,-9.1005712,0.5099458
1765065011129,2.8635417999999997,-9.1005712,0.5099458
1765065011135,2.5105024,-8.7083052,0.2745862
1765065011141,2.2751428,-8.669078599999999,0.2353596
1765065011147,2.2751428,-8.669078599999999,0.2353596
1765065011153,2.0790097999999997,-8.9044382,0.2745862
1765065011194,1.9221034,-9.3751574,0.2353596
1765065011200,1.9221034,-9.3751574,0.2353596
1765065011206,2.9812215999999996,-9.5320638,-0.1569064
1765065011212,3.6088471999999996,-9.6889702,-0.5883989999999999
1765065011218,3.6088471999999996,-9.6889702,-0.5883989999999999
1765065011224,3.6088471999999996,-9.7674234,-0.5883989999999999
1765065011230,3.6088471999999996,-9.7674234,-0.5883989999999999
1765065011236,3.6088471999999996,-9.5320638,-0.5491724
1765065011242,2.941995,-9.5320638,-0.3138128
1765065011248,2.941995,-9.5320638,-0.3138128
1765065011254,2.2359162,-9.571290399999999,-0.0392266
1765065011260,2.2359162,-9.571290399999999,-0.0392266
1765065011266,1.8436502,-9.3751574,0.0392266
1765065011272,1.8436502,-9.3751574,0.0392266
1765065011278,1.6475172,-9.845876599999999,0.196133
1765065011284,1.5298374,-10.002782999999999,0.2745862
1765065011290,1.5298374,-10.002782999999999,0.2745862
1765065011296,2.0005566,-9.8851032,0.0392266
1765065011302,2.0005566,-9.8851032,0.0392266
1765065011308,2.2751428,-9.610517,-0.1569064
1765065011348,1.96133,-9.1005712,-0.7453053999999999
1765065011354,2.157463,-9.414383999999998,-0.7060788
1765065011360,2.157463,-9.414383999999998,-0.7060788
1765065011366,2.7850886,-9.7674234,-0.8629851999999999
1765065011372,2.7850886,-9.7674234,-0.8629851999999999
1765065011378,3.2950344,-10.0420096,-1.0198916
1765065011384,3.6088471999999996,-10.0420096,-1.2552512
1765065011390,3.6088471999999996,-10.0420096,-1.2552512
1765065011396,3.726527,-10.002782999999999,-1.4513842
1765065011402,3.726527,-10.002782999999999,-1.4513842
1765065011408,3.4911673999999997,-9.924329799999999,-1.3729310000000001
1765065011414,2.941995,-10.0420096,-1.0983448
1765065011420,2.941995,-10.0420096,-1.0983448
1765065011426,2.5105024,-9.924329799999999,-0.6668522
1765065011432,2.5105024,-9.924329799999999,-0.6668522
1765065011438,2.3535959999999996,-9.571290399999999,-0.6276256
1765065011444,2.3535959999999996,-9.571290399999999,-0.6276256
1765065011450,2.1966896,-9.1790244,-0.6276256
1765065011456,2.0005566,-8.8652116,-0.6668522
1765065011463,2.0005566,-8.8652116,-0.6668522
1765065011503,3.0596748,-9.2967042,-1.0983448
1765065011509,3.2165812,-9.5320638,-1.1767979999999998
1765065011515,3.2165812,-9.5320638,-1.1767979999999998
1765065011521,3.4519407999999996,-9.3751574,-1.2944778
1765065011527,3.4127142,-9.2967042,-1.0591182
1765065011533,3.4127142,-9.2967042,-1.0591182
1765065011539,3.1773545999999997,-8.8652116,-1.0198916
1765065011545,3.1773545999999997,-8.8652116,-1.0198916
1765065011551,2.941995,-8.1591328,-1.3337044
1765065011557,2.9027684,-8.394492399999999,-0.9414384
1765065011563,2.9027684,-8.394492399999999,-0.9414384
1765065011569,2.5889556,-8.394492399999999,-0.9414384
1765065011575,2.5889556,-8.394492399999999,-0.9414384
1765065011581,2.941995,-8.433719,-1.1767979999999998
1765065011587,3.0989014,-9.2574776,-1.1767979999999998
1765065011593,3.0989014,-9.2574776,-1.1767979999999998
1765065011599,3.4519407999999996,-10.0420096,-0.9414384
1765065011605,3.4519407999999996,-10.0420096,-0.9414384
1765065011611,4.0011132,-10.0812362,-1.0198916
1765065011617,4.0011132,-10.0812362,-1.0198916
1765065011658,3.4911673999999997,-8.8652116,-1.2160246
1765065011664,2.9812215999999996,-9.1397978,-0.8237586
1765065011670,2.4712758,-8.8652116,-0.7060788
1765065011676,2.4712758,-8.8652116,-0.7060788
1765065011682,2.3143694,-8.629852,-0.7060788
1765065011688,2.3143694,-8.629852,-0.7060788
1765065011694,2.7458620000000002,-8.669078599999999,-0.8629851999999999
1765065011700,3.2165812,-8.3552658,-1.2944778
1765065011706,3.2165812,-8.3552658,-1.2944778
1765065011712,3.8442068,-8.747531799999999,-1.3729310000000001
1765065011718,3.8442068,-8.747531799999999,-1.3729310000000001
1765065011724,4.314926,-9.1790244,-1.3337044
1765065011730,4.6679654,-9.2967042,-1.6867438000000001
1765065011736,4.6679654,-9.2967042,-1.6867438000000001
1765065011742,4.903325,-9.414383999999998,-1.7259703999999998
1765065011748,4.903325,-9.414383999999998,-1.7259703999999998
1765065011754,4.6679654,-9.218251,-1.6475172
1765065011760,4.158019599999999,-9.0613446,-1.569064
1765065011766,4.158019599999999,-9.0613446,-1.569064
1765065011772,3.334261,-8.394492399999999,-1.4906107999999998
1765065011812,3.8834334,-8.4729456,-1.6867438000000001
1765065011818,3.8834334,-8.4729456,-1.6867438000000001
1765065011824,4.0011132,-8.7867584,-1.7259703999999998
1765065011830,4.0011132,-8.7867584,-1.7259703999999998
1765065011836,4.2364728,-9.3751574,-1.7259703999999998
1765065011842,4.511059,-9.571290399999999,-1.569064
1765065011848,4.511059,-9.571290399999999,-1.569064
1765065011854,4.0795664,-9.414383999999998,-1.6867438000000001
1765065011860,4.0795664,-9.414383999999998,-1.6867438000000001
1765065011866,4.0011132,-9.610517,-1.8044235999999998
1765065011872,4.2756994,-9.4536106,-1.6475172
1765065011878,4.2756994,-9.4536106,-1.6475172
1765065011884,3.7657536,-9.5320638,-1.4906107999999998
1765065011890,3.7657536,-9.5320638,-1.4906107999999998
1765065011896,3.5696205999999995,-9.3751574,-1.4906107999999998
1765065011902,3.3734876000000003,-9.492837199999999,-1.5298374
1765065011908,3.3734876000000003,-9.492837199999999,-1.5298374
1765065011914,3.5696205999999995,-9.492837199999999,-1.6082906
1765065011920,3.5696205999999995,-9.492837199999999,-1.6082906
1765065011926,3.8442068,-9.3359308,-1.6475172
1765065011967,3.8834334,-8.5513988,-2.157463
1765065011973,3.8834334,-9.1790244,-1.9221034
1765065011979,3.8834334,-9.1790244,-1.9221034
1765065011985,4.158019599999999,-9.2967042,-1.8828768
1765065011991,4.158019599999999,-9.2967042,-1.8828768
1765065011997,4.3541526,-9.4536106,-1.8436502
1765065012003,4.3541526,-9.4536106,-1.8436502
1765065012009,4.314926,-9.1397978,-1.9221034
1765065012015,4.1972461999999995,-8.825985,-2.0790097999999997
1765065012021,4.1972461999999995,-8.825985,-2.0790097999999997
1765065012027,4.0795664,-8.9828914,-2.1182364
1765065012033,4.0795664,-8.9828914,-2.1182364
1765065012039,3.92266,-9.2967042,-1.9221034
1765065012045,3.92266,-9.2967042,-1.765197
1765065012051,3.92266,-9.2967042,-1.765197
1765065012057,4.2364728,-8.9436648,-2.0790097999999997
1765065012063,4.2364728,-8.9436648,-2.0790097999999997
1765065012069,4.511059,-8.669078599999999,-2.157463
1765065012075,4.158019599999999,-8.394492399999999,-2.0790097999999997
1765065012081,4.158019599999999,-8.394492399999999,-2.0790097999999997
1765065012122,3.2165812,-8.5121722,-1.7259703999999998
1765065012128,3.4519407999999996,-8.825985,-1.7259703999999998
1765065012134,3.4519407999999996,-8.825985,-1.7259703999999998
1765065012140,4.0403398,-9.2967042,-1.6867438000000001
1765065012146,4.0795664,-9.4536106,-1.6475172
1765065012152,4.0795664,-9.4536106,-1.6475172
1765065012158,4.0403398,-9.218251,-1.8044235999999998
1765065012164,4.0403398,-9.218251,-1.8044235999999998
1765065012170,3.92266,-8.9828914,-1.8436502
1765065012176,3.5696205999999995,-8.8652116,-1.6867438000000001
1765065012182,3.5696205999999995,-8.8652116,-1.6867438000000001
1765065012188,3.2950344,-8.825985,-1.6082906
1765065012194,3.2950344,-8.825985,-1.6082906
1765065012200,3.334261,-8.747531799999999,-1.569064
1765065012206,3.334261,-8.747531799999999,-1.569064
1765065012212,3.138128,-8.3552658,-1.7259703999999998
1765065012218,3.4127142,-8.1199062,-1.96133
1765065012224,3.4127142,-8.1199062,-1.96133
1765065012230,3.8442068,-8.041453,-2.1182364
1765065012236,3.8442068,-8.041453,-2.1182364
1765065012277,3.8049801999999997,-9.1005712,-1.8044235999999998
1765065012283,4.0011132,-8.9044382,-1.9221034
1765065012289,4.118792999999999,-8.669078599999999,-2.1182364
1765065012295,4.118792999999999,-8.669078599999999,-2.1182364
1765065012301,3.8442068,-8.2768126,-2.157463
1765065012307,3.8442068,-8.2768126,-2.157463
1765065012313,3.5696205999999995,-8.5121722,-1.9221034
1765065012319,3.334261,-8.9436648,-1.6867438000000001
1765065012325,3.334261,-8.9436648,-1.6867438000000001
1765065012331,3.334261,-8.9436648,-1.765197
1765065012337,3.334261,-8.9436648,-1.765197
1765065012343,3.6480737999999997,-8.747531799999999,-2.0005566
1765065012349,3.8049801999999997,-8.629852,-2.0790097999999997
1765065012355,3.8049801999999997,-8.629852,-2.0790097999999997
1765065012361,4.0403398,-8.7867584,-2.0790097999999997
1765065012367,4.0403398,-8.7867584,-2.0790097999999997
1765065012373,3.8834334,-8.747531799999999,-1.96133
1765065012379,3.5696205999999995,-8.7083052,-2.0005566
1765065012385,3.5696205999999995,-8.7083052,-2.0005566
1765065012391,3.3734876000000003,-8.629852,-1.96133
1765065012431,3.6480737999999997,-9.218251,-1.9221034
1765065012437,3.6480737999999997,-9.218251,-1.9221034
1765065012443,4.2364728,-9.1005712,-2.1182364
1765065012449,4.2364728,-9.1005712,-2.1182364
1765065012455,4.2756994,-8.9436648,-2.2359162
1765065012461,4.0011132,-8.669078599999999,-2.1966896
1765065012467,4.0011132,-8.669078599999999,-2.1966896
1765065012473,3.6480737999999997,-8.669078599999999,-2.0790097999999997
1765065012479,3.6480737999999997,-8.669078599999999,-2.0790097999999997
1765065012485,3.3734876000000003,-8.7867584,-1.765197
1765065012491,3.334261,-8.9044382,-1.8436502
1765065012497,3.334261,-8.9044382,-1.8436502
1765065012503,3.6480737999999997,-8.747531799999999,-2.0397832
1765065012509,3.6480737999999997,-8.747531799999999,-2.0397832
1765065012515,3.9618866,-8.747531799999999,-2.1182364
1765065012521,4.0403398,-8.747531799999999,-2.157463
1765065012527,4.0403398,-8.747531799999999,-2.157463
1765065012533,3.8442068,-8.747531799999999,-2.0790097999999997
1765065012539,3.8442068,-8.747531799999999,-2.0790097999999997
