timestamp_ms,ax,ay,az
1765065165208,5.530950600000001,-7.3353741999999995,-0.6276256
1765065165249,4.1972461999999995,-7.139241199999999,-0.9414384
1765065165255,3.92266,-7.9237732,-0.8629851999999999
1765065165261,3.92266,-7.9237732,-0.8629851999999999
1765065165267,4.6287388,-8.1591328,-1.2160246
1765065165273,4.6287388,-8.1591328,-1.2160246
1765065165279,5.3348176,-7.5707338,-1.4121576
1765065165285,5.3348176,-7.5707338,-1.4121576
1765065165291,4.4326058,-7.060788,-1.4121576
1765065165297,3.8049801999999997,-7.217694399999999,-1.2552512
1765065165303,3.8049801999999997,-7.217694399999999,-1.2552512
1765065165309,3.7657536,-6.3154826,-1.2944778
1765065165315,3.7657536,-6.3154826,-1.2944778
1765065165321,4.2756994,-5.0210048,-1.7259703999999998
1765065165327,4.6287388,-5.099458,-1.8828768
1765065165333,4.6287388,-5.099458,-1.8828768
1765065165339,5.099458,-6.668522,-2.157463
1765065165345,5.099458,-6.668522,-2.157463
1765065165351,6.1193496,-9.492837199999999,-1.6867438000000001
1765065165357,6.1585762,-11.2580342,-1.4121576
1765065165363,6.1585762,-11.2580342,-1.4121576
1765065165403,4.3541526,-6.786201800000001,-1.3337044
1765065165409,3.8049801999999997,-7.3353741999999995,-1.1767979999999998
1765065165415,3.8049801999999997,-7.3353741999999995,-1.1767979999999998
1765065165421,4.314926,-7.178467799999999,-1.4906107999999998
1765065165427,5.2171378,-7.217694399999999,-1.2552512
1765065165433,5.2171378,-7.217694399999999,-1.2552512
1765065165439,4.746418599999999,-7.139241199999999,-1.0983448
1765065165445,4.746418599999999,-7.139241199999999,-1.0983448
1765065165451,4.1972461999999995,-7.060788,-1.0591182
1765065165457,4.1972461999999995,-7.060788,-1.0591182
1765065165463,3.7657536,-6.668522,-0.9414384
1765065165469,4.118792999999999,-6.354709199999999,-1.4513842
1765065165475,4.118792999999999,-6.354709199999999,-1.4513842
1765065165481,4.9817782,-7.060788,-1.569064
1765065165487,4.9817782,-7.060788,-1.569064
1765065165493,5.3348176,-7.7668668,-1.5298374
1765065165499,5.3348176,-8.041453,-1.6867438000000001
1765065165505,5.3348176,-8.041453,-1.6867438000000001
1765065165511,5.2171378,-7.7276402,-1.6867438000000001
1765065165517,5.2171378,-7.7276402,-1.6867438000000001
1765065165558,6.4331624,-6.982334799999999,-2.157463
1765065165564,5.8055368,-7.609960399999999,-2.2751428
1765065165570,5.687856999999999,-8.7867584,-1.8828768
1765065165576,5.687856999999999,-8.7867584,-1.8828768
1765065165582,5.1779112,-8.747531799999999,-1.6475172
1765065165588,5.1779112,-8.747531799999999,-1.6475172
1765065165594,5.099458,-7.4922806,-1.8436502
1765065165600,5.099458,-7.4922806,-1.8436502
1765065165606,5.727083599999999,-6.7077486,-1.8828768
1765065165612,5.8447634,-6.982334799999999,-2.1966896
1765065165618,5.8447634,-6.982334799999999,-2.1966896
1765065165624,6.1585762,-8.629852,-2.1966896
1765065165630,6.1585762,-8.629852,-2.1966896
1765065165636,6.1585762,-9.414383999999998,-2.3143694
1765065165642,6.6292954,-8.8652116,-2.5105024
1765065165648,6.6292954,-8.8652116,-2.5105024
1765065165654,7.1000146,-8.0022264,-2.5889556
1765065165660,7.1000146,-8.0022264,-2.5889556
1765065165666,6.7077486,-7.4922806,-2.4712758
1765065165672,5.3740442,-7.609960399999999,-2.1182364
1765065165712,5.0602314,-6.7077486,-2.4712758
1765065165718,5.0602314,-6.7077486,-2.4712758
1765065165724,4.9425516,-6.982334799999999,-2.6281822
1765065165730,4.9425516,-6.982334799999999,-2.6281822
1765065165736,5.2171378,-7.453054,-2.4320492
1765065165742,5.6486304,-7.060788,-3.1773545999999997
1765065165748,5.6486304,-7.060788,-3.1773545999999997
1765065165754,5.4132708,-6.276256,-2.8635417999999997
1765065165760,5.4132708,-6.276256,-2.8635417999999997
1765065165766,6.903881599999999,-7.3353741999999995,-1.9221034
1765065165772,6.903881599999999,-7.3353741999999995,-1.9221034
1765065165778,7.7276402,-7.139241199999999,-1.5298374
1765065165784,6.354709199999999,-5.5701772,-1.2944778
1765065165790,6.354709199999999,-5.5701772,-1.2944778
1765065165796,5.88399,-5.5701772,-1.1767979999999998
1765065165802,5.88399,-5.5701772,-1.1767979999999998
1765065165808,6.1193496,-6.6292954,-1.5298374
1765065165814,6.354709199999999,-7.453054,-1.569064
1765065165820,6.354709199999999,-7.453054,-1.569064
1765065165826,6.943108199999999,-7.5707338,-1.8044235999999998
1765065165867,5.8055368,-7.1000146,-1.9221034
1765065165873,5.8055368,-7.1000146,-1.9221034
1765065165879,5.923216599999999,-7.178467799999999,-1.96133
1765065165885,6.1193496,-7.3353741999999995,-1.8436502
1765065165891,6.1193496,-7.3353741999999995,-1.8436502
1765065165897,6.354709199999999,-7.256920999999999,-1.9221034
1765065165903,6.354709199999999,-7.256920999999999,-1.9221034
1765065165909,6.5116156,-6.903881599999999,-1.8828768
1765065165915,6.3154826,-6.4331624,-2.0790097999999997
1765065165921,6.3154826,-6.4331624,-2.0790097999999997
1765065165927,6.5900688,-6.5900688,-2.2359162
1765065165933,6.5900688,-6.5900688,-2.2359162
1765065165939,7.0215613999999995,-7.139241199999999,-2.4712758
1765065165945,7.0215613999999995,-7.139241199999999,-2.4712758
1765065165951,7.256920999999999,-7.217694399999999,-2.8243152
1765065165957,7.8060934,-7.256920999999999,-2.7458620000000002
1765065165963,7.8060934,-7.256920999999999,-2.7458620000000002
1765065165969,7.5707338,-7.3353741999999995,-2.7066354
1765065165975,7.5707338,-7.3353741999999995,-2.7066354
1765065165981,6.903881599999999,-7.3746008,-2.2359162
1765065166021,6.5116156,-6.472389,-2.3535959999999996
1765065166027,6.943108199999999,-6.864655,-2.549729
1765065166033,6.943108199999999,-6.864655,-2.549729
1765065166039,7.0215613999999995,-7.3353741999999995,-2.6281822
1765065166045,7.0215613999999995,-7.3353741999999995,-2.6281822
1765065166051,6.903881599999999,-7.6884136,-2.4712758
1765065166057,6.7077486,-7.4922806,-2.4712758
1765065166063,6.7077486,-7.4922806,-2.4712758
1765065166069,6.668522,-6.8254284,-2.5105024
1765065166075,6.668522,-6.8254284,-2.5105024
1765065166081,6.903881599999999,-6.276256,-2.549729
1765065166087,6.903881599999999,-6.276256,-2.549729
1765065166093,6.943108199999999,-6.276256,-2.7066354
1765065166099,6.7077486,-6.668522,-2.7458620000000002
1765065166105,6.7077486,-6.668522,-2.7458620000000002
1765065166111,6.354709199999999,-6.982334799999999,-2.549729
1765065166117,6.354709199999999,-6.982334799999999,-2.549729
1765065166123,6.668522,-7.1000146,-2.6674088
1765065166129,6.5116156,-6.668522,-2.5889556
1765065166135,6.5116156,-6.668522,-2.5889556
1765065166176,6.1978028,-6.7469752000000005,-2.5889556
1765065166182,6.3939357999999995,-6.7469752000000005,-2.549729
1765065166188,6.3939357999999995,-6.7469752000000005,-2.549729
1765065166194,6.5900688,-6.276256,-2.5105024
1765065166200,6.6292954,-6.1978028,-2.7066354
1765065166206,6.6292954,-6.1978028,-2.7066354
1765065166212,6.3939357999999995,-6.6292954,-2.6674088
1765065166218,6.3939357999999995,-6.6292954,-2.6674088
1765065166223,6.3154826,-7.256920999999999,-2.4320492
1765065166229,6.6292954,-7.256920999999999,-2.549729
1765065166235,6.6292954,-7.256920999999999,-2.549729
1765065166241,6.7077486,-6.7469752000000005,-2.5889556
1765065166247,6.7077486,-6.7469752000000005,-2.5889556
1765065166253,6.786201800000001,-6.7469752000000005,-3.0596748
1765065166259,6.786201800000001,-6.7469752000000005,-3.0596748
1765065166265,7.178467799999999,-7.178467799999999,-2.941995
1765065166271,6.982334799999999,-7.0215613999999995,-2.941995
1765065166277,6.982334799999999,-7.0215613999999995,-2.941995
1765065166284,6.5508422,-6.668522,-2.9027684
1765065166290,6.5508422,-6.668522,-2.9027684
1765065166331,7.0215613999999995,-7.3746008,-2.8243152
1765065166337,6.903881599999999,-7.060788,-2.941995
1765065166343,6.786201800000001,-6.6292954,-3.0989014
1765065166349,6.786201800000001,-6.6292954,-3.0989014
1765065166355,7.060788,-6.668522,-2.9812215999999996
1765065166361,7.060788,-6.668522,-2.9812215999999996
1765065166367,7.3353741999999995,-6.982334799999999,-3.138128
1765065166373,7.296147599999999,-7.256920999999999,-3.1773545999999997
1765065166379,7.296147599999999,-7.256920999999999,-3.1773545999999997
1765065166385,6.864655,-7.217694399999999,-3.2165812
1765065166391,6.864655,-7.217694399999999,-3.2165812
1765065166397,7.060788,-6.903881599999999,-3.2950344
1765065166403,7.3746008,-6.6292954,-3.3734876000000003
1765065166409,7.3746008,-6.6292954,-3.3734876000000003
1765065166415,7.178467799999999,-6.3939357999999995,-3.334261
1765065166421,7.178467799999999,-6.3939357999999995,-3.334261
1765065166427,6.5900688,-6.1585762,-3.1773545999999997
1765065166433,6.4331624,-5.8055368,-3.0596748
1765065166439,6.4331624,-5.8055368,-3.0596748
1765065166445,6.5508422,-5.88399,-3.0204481999999997
1765065166485,6.6292954,-5.962443199999999,-2.8635417999999997
1765065166491,6.6292954,-5.962443199999999,-2.8635417999999997
1765065166497,6.3154826,-6.1193496,-2.7850886
1765065166503,6.3154826,-6.1193496,-2.7850886
1765065166509,6.1193496,-6.1585762,-2.7850886
1765065166515,6.5900688,-6.3939357999999995,-3.1773545999999997
1765065166521,6.5900688,-6.3939357999999995,-3.1773545999999997
1765065166527,7.178467799999999,-6.786201800000001,-3.138128
1765065166533,7.178467799999999,-6.786201800000001,-3.138128
1765065166539,6.903881599999999,-6.943108199999999,-3.0204481999999997
1765065166545,6.5900688,-6.472389,-3.0596748
1765065166551,6.5900688,-6.472389,-3.0596748
1765065166557,6.1978028,-5.727083599999999,-2.941995
1765065166563,6.1978028,-5.727083599999999,-2.941995
1765065166569,6.2370294,-5.6486304,-2.8243152
1765065166575,6.3154826,-6.6292954,-2.7850886
1765065166581,6.3154826,-6.6292954,-2.7850886
1765065166587,6.5508422,-7.296147599999999,-2.9027684
1765065166593,6.5508422,-7.296147599999999,-2.9027684
1765065166599,6.943108199999999,-7.139241199999999,-3.138128
1765065166640,7.139241199999999,-6.6292954,-3.530394
1765065166646,7.1000146,-6.5116156,-3.4911673999999997
1765065166652,7.1000146,-6.5116156,-3.4911673999999997
1765065166658,7.139241199999999,-6.354709199999999,-3.5696205999999995
1765065166664,7.139241199999999,-6.354709199999999,-3.5696205999999995
1765065166670,7.0215613999999995,-6.040896399999999,-3.6088471999999996
1765065166676,7.0215613999999995,-6.040896399999999,-3.6088471999999996
1765065166682,7.296147599999999,-5.8447634,-3.92266
1765065166688,7.6491869999999995,-6.1193496,-3.92266
1765065166694,7.6491869999999995,-6.1193496,-3.92266
1765065166700,7.5315072,-6.6292954,-4.0011132
1765065166706,7.5315072,-6.6292954,-4.0011132
1765065166712,8.041453,-7.256920999999999,-4.158019599999999
1765065166718,8.1199062,-7.4922806,-3.9618866
1765065166724,8.1199062,-7.4922806,-3.9618866
1765065166730,7.8060934,-7.4922806,-4.0795664
1765065166736,7.8060934,-7.4922806,-4.0795664
1765065166742,8.237585999999999,-8.237585999999999,-3.4911673999999997
1765065166748,7.4922806,-8.590625399999999,-3.0989014
