timestamp_ms,ax,ay,az
1765065469509,2.3535959999999996,8.669078599999999,2.7850886
1765065469549,1.96133,9.1397978,2.6281822
1765065469556,1.96133,9.1397978,2.6281822
1765065469562,2.0397832,8.316039199999999,2.7066354
1765065469568,2.0397832,8.316039199999999,2.7066354
1765065469574,2.0790097999999997,8.316039199999999,2.8635417999999997
1765065469580,1.7259703999999998,9.022118,2.6674088
1765065469586,1.7259703999999998,9.022118,2.6674088
1765065469592,1.569064,9.414383999999998,2.5889556
1765065469598,1.569064,9.414383999999998,2.5889556
1765065469604,1.569064,9.3751574,2.6674088
1765065469610,1.569064,9.3751574,2.6674088
1765065469616,1.8044235999999998,8.9436648,2.6674088
1765065469622,2.2359162,8.394492399999999,2.7458620000000002
1765065469628,2.2359162,8.394492399999999,2.7458620000000002
1765065469634,2.3535959999999996,8.1983594,2.8635417999999997
1765065469640,2.3535959999999996,8.1983594,2.8635417999999997
1765065469646,1.6867438000000001,8.9044382,2.6281822
1765065469652,1.1375714,9.5320638,2.549729
1765065469658,1.1375714,9.5320638,2.549729
1765065469664,1.0198916,9.1397978,2.549729
1765065469704,1.9221034,8.1199062,2.7850886
1765065469710,1.9221034,8.1199062,2.7850886
1765065469716,1.4906107999999998,7.9629998,2.5105024
1765065469722,1.3729310000000001,8.1983594,2.5889556
1765065469728,1.3729310000000001,8.1983594,2.5889556
1765065469734,1.3337044,7.84532,2.5105024
1765065469740,1.3337044,7.84532,2.5105024
1765065469746,0.980665,8.1199062,2.4712758
1765065469752,0.980665,8.5513988,2.3143694
1765065469758,0.980665,8.5513988,2.3143694
1765065469764,0.980665,8.9044382,2.157463
1765065469770,0.980665,8.9044382,2.157463
1765065469776,1.2160246,9.4536106,2.1966896
1765065469782,1.2160246,9.4536106,2.1966896
1765065469788,1.3337044,10.002782999999999,2.2751428
1765065469794,1.6082906,10.1596894,2.0790097999999997
1765065469800,1.6082906,10.1596894,2.0790097999999997
1765065469806,1.765197,9.7674234,2.1966896
1765065469812,1.765197,9.7674234,2.1966896
1765065469818,1.8044235999999998,10.0420096,2.157463
1765065469859,1.3337044,9.1397978,1.9221034
1765065469865,0.4707192,9.3751574,1.9221034
1765065469871,0.4707192,9.3751574,1.9221034
1765065469877,0.3138128,9.610517,1.9221034
1765065469883,0.3138128,9.610517,1.9221034
1765065469889,0.2353596,9.218251,1.8436502
1765065469895,0.2745862,9.4536106,1.9221034
1765065469901,0.2745862,9.4536106,1.9221034
1765065469907,0.4707192,9.6889702,1.8044235999999998
1765065469913,0.4707192,9.6889702,1.8044235999999998
1765065469919,0.5883989999999999,9.2967042,1.765197
1765065469925,0.5883989999999999,9.2967042,1.765197
1765065469931,0.980665,9.610517,1.6867438000000001
1765065469936,1.569064,9.924329799999999,1.6082906
1765065469942,1.569064,9.924329799999999,1.6082906
1765065469948,1.6082906,10.0420096,1.6082906
1765065469954,1.6082906,10.0420096,1.6082906
1765065469960,1.2944778,10.6304086,1.3729310000000001
1765065469966,1.4513842,10.1596894,1.4121576
1765065469972,1.4513842,10.1596894,1.4121576
1765065470013,0.9022117999999999,9.6889702,1.3337044
1765065470019,0.980665,9.649743599999999,1.2160246
1765065470025,0.980665,9.649743599999999,1.2160246
1765065470031,1.2552512,10.1204628,1.1767979999999998
1765065470037,1.6082906,9.8851032,1.2944778
1765065470043,1.6082906,9.8851032,1.2944778
1765065470049,1.569064,9.845876599999999,1.1375714
1765065470055,1.569064,9.845876599999999,1.1375714
1765065470061,1.2160246,10.1204628,1.2160246
1765065470067,1.0198916,10.0420096,1.0591182
1765065470073,1.0198916,10.0420096,1.0591182
1765065470079,0.8629851999999999,10.198916,1.0983448
1765065470085,0.8629851999999999,10.198916,1.0983448
1765065470091,0.5883989999999999,10.1596894,0.980665
1765065470097,0.5883989999999999,10.1596894,0.980665
1765065470103,0.43149259999999995,10.1204628,0.9022117999999999
1765065470109,0.5099458,10.0420096,0.8237586
1765065470115,0.5099458,10.0420096,0.8237586
1765065470121,0.3138128,10.4735022,0.8629851999999999
1765065470127,0.3138128,10.4735022,0.8629851999999999
1765065470167,1.0198916,10.198916,1.0591182
1765065470173,0.980665,10.277369199999999,0.9414384
1765065470179,0.5491724,10.591182,0.7453053999999999
1765065470185,0.5491724,10.591182,0.7453053999999999
1765065470191,0.7060788,10.277369199999999,0.784532
1765065470197,0.7060788,10.277369199999999,0.784532
1765065470203,1.0198916,9.6889702,0.7453053999999999
1765065470209,0.5491724,9.4536106,0.784532
1765065470215,0.5491724,9.4536106,0.784532
1765065470221,0.5099458,9.845876599999999,0.8629851999999999
1765065470227,0.5099458,9.845876599999999,0.8629851999999999
1765065470233,0.2745862,10.1204628,0.7453053999999999
1765065470239,0.2745862,10.1204628,0.7453053999999999
1765065470245,-0.9022117999999999,10.1204628,0.784532
1765065470251,-1.2160246,9.924329799999999,0.8237586
1765065470257,-1.2160246,9.924329799999999,0.8237586
1765065470263,-0.7453053999999999,9.845876599999999,0.7060788
1765065470269,-0.7453053999999999,9.845876599999999,0.7060788
1765065470275,-0.2353596,10.002782999999999,0.7060788
1765065470281,0.5491724,10.3165958,0.7060788
1765065470322,0.9022117999999999,10.591182,0.3138128
1765065470328,0.9022117999999999,10.591182,0.3138128
1765065470334,0.6276256,10.0812362,0.3530394
1765065470340,0.6276256,10.0812362,0.3530394
1765065470346,0.5883989999999999,10.3165958,0.3530394
1765065470352,0.6276256,9.8851032,0.3530394
1765065470358,0.6276256,9.8851032,0.3530394
1765065470364,0.5883989999999999,10.3165958,0.2745862
1765065470370,0.5883989999999999,10.3165958,0.2745862
1765065470376,0.8237586,10.5127288,0.2353596
1765065470382,1.2552512,10.1596894,0.196133
1765065470388,1.2552512,10.1596894,0.196133
1765065470394,1.1375714,10.6304086,0.0784532
1765065470400,1.1375714,10.6304086,0.0784532
1765065470406,1.4121576,10.277369199999999,0.0784532
1765065470412,1.4121576,10.277369199999999,0.0784532
1765065470418,1.4513842,10.198916,0.0784532
1765065470424,1.4513842,10.5519554,0.0784532
1765065470430,1.4513842,10.5519554,0.0784532
1765065470436,1.2160246,9.924329799999999,0.0
1765065470476,0.5099458,10.1596894,-0.0784532
1765065470482,0.5099458,10.1596894,-0.0784532
1765065470488,0.5099458,10.198916,-0.1176798
1765065470494,0.392266,9.80665,-0.2745862
1765065470500,0.392266,9.80665,-0.2745862
1765065470506,0.4707192,9.414383999999998,-0.0392266
1765065470512,0.4707192,9.414383999999998,-0.0392266
1765065470518,1.0591182,9.3751574,-0.0392266
1765065470524,1.0983448,9.1397978,-0.0784532
1765065470530,1.0983448,9.1397978,-0.0784532
1765065470536,0.6668522,9.5320638,-0.0392266
1765065470542,0.6668522,9.5320638,-0.0392266
1765065470548,0.8237586,9.649743599999999,-0.0784532
1765065470554,0.8237586,9.649743599999999,-0.0784532
1765065470560,0.7060788,9.571290399999999,-0.1176798
1765065470566,0.8237586,9.924329799999999,-0.196133
1765065470572,0.8237586,9.924329799999999,-0.196133
1765065470578,1.0198916,10.3558224,-0.3138128
1765065470584,1.0198916,10.3558224,-0.3138128
1765065470590,1.0983448,10.0420096,-0.2353596
1765065470631,1.0983448,9.9635564,-0.1176798
1765065470637,1.2160246,9.8851032,-0.43149259999999995
1765065470643,1.2160246,9.8851032,-0.43149259999999995
1765065470649,0.392266,10.277369199999999,-0.5883989999999999
1765065470655,0.392266,10.277369199999999,-0.5883989999999999
1765065470661,0.3138128,9.845876599999999,-0.43149259999999995
1765065470667,0.43149259999999995,9.649743599999999,-0.43149259999999995
1765065470673,0.43149259999999995,9.649743599999999,-0.43149259999999995
1765065470679,0.5883989999999999,10.2381426,-0.4707192
1765065470685,0.5883989999999999,10.2381426,-0.4707192
1765065470691,0.7060788,10.5127288,-0.5491724
1765065470697,0.1176798,10.395049,-0.6276256
1765065470703,0.1176798,10.395049,-0.6276256
1765065470709,-0.196133,10.9049948,-0.6668522
1765065470715,-0.196133,10.9049948,-0.6668522
1765065470721,-0.3530394,10.5519554,-0.3530394
1765065470727,-0.1176798,10.198916,-0.392266
1765065470733,-0.1176798,10.198916,-0.392266
1765065470739,0.1176798,10.2381426,-0.5099458
1765065470745,0.1176798,10.2381426,-0.5099458
1765065470786,0.43149259999999995,10.6304086,-0.7453053999999999
1765065470792,0.6276256,10.6304086,-0.5883989999999999
1765065470798,0.6276256,10.6304086,-0.5883989999999999
1765065470804,0.6668522,10.1204628,-0.5883989999999999
1765065470810,0.1569064,10.0812362,-0.43149259999999995
1765065470816,0.1569064,10.0812362,-0.43149259999999995
1765065470822,0.196133,10.4342756,-0.784532
1765065470828,0.196133,10.4342756,-0.784532
1765065470834,0.2745862,10.9049948,-0.8237586
1765065470840,0.6276256,10.787315,-0.8237586
1765065470846,0.6276256,10.787315,-0.8237586
1765065470852,1.0198916,9.845876599999999,-0.784532
1765065470858,1.0198916,9.845876599999999,-0.784532
1765065470864,0.8629851999999999,9.3751574,-0.6276256
1765065470870,0.0392266,10.0812362,-0.6276256
1765065470876,0.0392266,10.0812362,-0.6276256
1765065470882,0.0,10.0420096,-0.5099458
1765065470887,0.0,10.0420096,-0.5099458
1765065470893,0.2353596,9.610517,-0.5491724
1765065470899,0.3530394,9.492837199999999,-0.5883989999999999
1765065470940,0.43149259999999995,9.610517,-0.6276256
1765065470946,0.43149259999999995,9.610517,-0.6276256
1765065470952,0.3530394,9.924329799999999,-0.6668522
1765065470958,0.3530394,9.924329799999999,-0.6668522
1765065470964,0.3138128,9.8851032,-0.6668522
1765065470970,0.3138128,9.8851032,-0.6668522
1765065470976,-0.0392266,9.924329799999999,-0.7060788
1765065470982,-0.0784532,10.198916,-0.8237586
1765065470988,-0.0784532,10.198916,-0.8237586
1765065470994,0.2353596,10.002782999999999,-0.8629851999999999
1765065471000,0.2353596,10.002782999999999,-0.8629851999999999
1765065471006,0.3138128,9.9635564,-0.6668522
1765065471012,0.43149259999999995,10.395049,-0.8237586
1765065471018,0.43149259999999995,10.395049,-0.8237586
1765065471024,0.5099458,10.3558224,-0.6668522
1765065471030,0.5099458,10.3558224,-0.6668522
1765065471036,0.7060788,10.5519554,-0.7453053999999999
1765065471042,0.6276256,10.6696352,-0.784532
1765065471048,0.6276256,10.6696352,-0.784532
