timestamp_ms,ax,ay,az
1765061448869,1.4906107999999998,8.825985,1.6082906
1765061448910,2.549729,8.9436648,0.9414384
1765061448916,2.8635417999999997,8.8652116,0.8237586
1765061448922,2.8635417999999997,8.8652116,0.8237586
1765061448928,3.0989014,8.7867584,0.8237586
1765061448934,3.0989014,8.7867584,0.8237586
1765061448940,2.8635417999999997,9.2967042,0.7060788
1765061448946,2.8635417999999997,9.8851032,0.5883989999999999
1765061448952,2.8635417999999997,9.8851032,0.5883989999999999
1765061448958,2.7850886,10.2381426,0.43149259999999995
1765061448964,2.7850886,10.2381426,0.43149259999999995
1765061448970,2.7066354,10.5519554,0.2353596
1765061448976,2.549729,10.591182,0.2745862
1765061448982,2.549729,10.591182,0.2745862
1765061448988,2.5105024,10.591182,0.3138128
1765061448994,2.5105024,10.591182,0.3138128
1765061449000,2.5105024,10.4735022,0.392266
1765061449006,2.7850886,9.845876599999999,0.392266
1765061449012,2.7850886,9.845876599999999,0.392266
1765061449018,3.334261,9.5320638,0.3530394
1765061449024,3.334261,9.5320638,0.3530394
1765061449065,2.2359162,10.198916,0.43149259999999995
1765061449071,1.569064,10.4735022,0.43149259999999995
1765061449077,1.569064,10.4735022,0.43149259999999995
1765061449083,1.6867438000000001,10.5519554,0.392266
1765061449089,2.0005566,10.2381426,0.3530394
1765061449095,2.0005566,10.2381426,0.3530394
1765061449101,2.4320492,9.924329799999999,0.2353596
1765061449107,2.4320492,9.924329799999999,0.2353596
1765061449113,2.5889556,9.414383999999998,0.196133
1765061449119,2.7066354,9.3359308,0.1176798
1765061449125,2.7066354,9.3359308,0.1176798
1765061449131,2.4320492,9.571290399999999,0.0392266
1765061449137,2.4320492,9.571290399999999,0.0392266
1765061449143,2.5889556,9.6889702,0.1569064
1765061449149,2.5889556,9.610517,0.0392266
1765061449155,2.5889556,9.610517,0.0392266
1765061449161,2.6674088,9.571290399999999,0.0
1765061449167,2.6674088,9.571290399999999,0.0
1765061449173,2.549729,9.3359308,0.0
1765061449179,2.5889556,9.3359308,0.0
1765061449219,2.1966896,9.492837199999999,0.0392266
1765061449225,2.1966896,9.492837199999999,0.0392266
1765061449231,2.0790097999999997,9.610517,0.0784532
1765061449237,2.0790097999999997,9.610517,0.0784532
1765061449243,2.0397832,10.0420096,0.0
1765061449249,2.0397832,10.0420096,0.0
1765061449255,2.2751428,10.2381426,-0.1569064
1765061449261,2.5105024,10.4342756,-0.3138128
1765061449267,2.5105024,10.4342756,-0.3138128
1765061449273,2.7458620000000002,9.9635564,-0.392266
1765061449279,2.7458620000000002,9.9635564,-0.392266
1765061449285,2.941995,9.7281968,-0.392266
1765061449291,3.4519407999999996,9.7281968,-0.5099458
1765061449297,3.4519407999999996,9.7281968,-0.5099458
1765061449303,3.138128,9.5320638,-0.5491724
1765061449309,3.138128,9.5320638,-0.5491724
1765061449315,2.8635417999999997,9.571290399999999,-0.5491724
1765061449321,2.941995,9.8851032,-0.392266
1765061449327,2.941995,9.8851032,-0.392266
1765061449333,2.549729,10.277369199999999,-0.43149259999999995
1765061449374,2.6674088,10.7480884,-0.5491724
1765061449380,2.6674088,10.7480884,-0.5491724
1765061449386,2.8243152,10.395049,-0.6276256
1765061449392,2.8243152,10.395049,-0.6276256
1765061449398,2.8635417999999997,9.7674234,-0.784532
1765061449404,3.138128,9.80665,-0.784532
1765061449410,3.138128,9.80665,-0.784532
1765061449416,3.1773545999999997,10.0812362,-0.8237586
1765061449422,3.1773545999999997,10.0812362,-0.8237586
1765061449427,2.6674088,10.0812362,-0.7453053999999999
1765061449433,2.549729,10.3165958,-0.8237586
1765061449439,2.549729,10.3165958,-0.8237586
1765061449445,2.4712758,10.1204628,-0.6668522
1765061449451,2.4712758,10.1204628,-0.6668522
1765061449457,2.4712758,10.3165958,-0.5883989999999999
1765061449463,2.5105024,10.0420096,-0.5099458
1765061449469,2.5105024,10.0420096,-0.5099458
1765061449475,2.7850886,9.845876599999999,-0.4707192
1765061449481,2.7850886,9.845876599999999,-0.4707192
1765061449487,2.8243152,9.649743599999999,-0.43149259999999995
1765061449528,2.549729,10.002782999999999,-0.5491724
1765061449534,2.3143694,10.277369199999999,-0.7060788
1765061449540,2.3143694,10.277369199999999,-0.7060788
1765061449546,2.1182364,10.5127288,-1.0198916
1765061449552,2.1182364,10.5127288,-1.0198916
1765061449558,2.5105024,10.7088618,-1.1375714
1765061449564,2.5105024,10.7088618,-1.1375714
1765061449570,3.0989014,10.787315,-1.2160246
1765061449576,3.5696205999999995,10.6304086,-1.1767979999999998
1765061449582,3.5696205999999995,10.6304086,-1.1767979999999998
1765061449588,3.92266,10.1596894,-1.1375714
1765061449594,3.92266,10.1596894,-1.1375714
1765061449600,4.3541526,9.7674234,-0.9022117999999999
1765061449606,4.8248717999999995,9.4536106,-0.8629851999999999
1765061449612,4.8248717999999995,9.4536106,-0.8629851999999999
1765061449618,4.5502856,9.1790244,-0.8629851999999999
1765061449624,4.5502856,9.1790244,-0.8629851999999999
1765061449630,4.2756994,9.3751574,-0.7060788
1765061449636,3.9618866,9.492837199999999,-0.7453053999999999
1765061449642,3.9618866,9.492837199999999,-0.7453053999999999
1765061449682,2.6674088,9.6889702,-0.5099458
1765061449688,2.9027684,9.3359308,-0.43149259999999995
1765061449694,2.9027684,9.3359308,-0.43149259999999995
1765061449700,3.0989014,9.0613446,-0.3138128
1765061449706,3.0989014,9.0613446,-0.3138128
1765061449712,3.5696205999999995,8.8652116,-0.2745862
1765061449718,3.6480737999999997,8.825985,-0.392266
1765061449724,3.6480737999999997,8.825985,-0.392266
1765061449730,3.4911673999999997,8.7083052,-0.2745862
1765061449736,3.4911673999999997,8.7083052,-0.2745862
1765061449742,3.334261,8.669078599999999,-0.2353596
1765061449748,3.2558078,9.3751574,-0.1569064
1765061449754,3.2558078,9.3751574,-0.1569064
1765061449760,3.0596748,9.610517,-0.1176798
1765061449766,3.0596748,9.610517,-0.1176798
1765061449772,2.941995,9.7281968,-0.196133
1765061449778,2.9027684,9.610517,-0.1176798
1765061449784,2.9027684,9.610517,-0.1176798
1765061449790,2.941995,9.610517,-0.2353596
1765061449796,2.941995,9.610517,-0.2353596
1765061449837,3.726527,9.1397978,-0.6276256
1765061449843,3.8049801999999997,8.9436648,-0.6668522
1765061449849,3.6480737999999997,8.9044382,-0.6276256
1765061449855,3.6480737999999997,8.9044382,-0.6276256
1765061449861,3.530394,8.8652116,-0.5099458
1765061449867,3.530394,8.8652116,-0.5099458
1765061449873,3.4519407999999996,9.022118,-0.6276256
1765061449879,3.4519407999999996,9.022118,-0.6276256
1765061449885,3.3734876000000003,9.1005712,-0.7060788
1765061449891,3.4127142,9.5320638,-0.7453053999999999
1765061449897,3.4127142,9.5320638,-0.7453053999999999
1765061449903,3.2558078,10.002782999999999,-0.9022117999999999
1765061449909,3.2558078,10.002782999999999,-0.9022117999999999
1765061449915,3.0596748,9.7281968,-0.784532
1765061449921,3.2950344,9.5320638,-0.8629851999999999
1765061449927,3.2950344,9.5320638,-0.8629851999999999
1765061449933,3.2165812,9.2967042,-0.8237586
1765061449939,3.2165812,9.2967042,-0.8237586
1765061449945,3.7657536,9.492837199999999,-0.9414384
1765061449951,4.1972461999999995,9.610517,-1.0198916
1765061449992,3.5696205999999995,10.0420096,-1.0198916
1765061449998,3.5696205999999995,10.0420096,-1.0198916
1765061450004,3.4519407999999996,10.002782999999999,-0.980665
1765061450010,3.4519407999999996,10.002782999999999,-0.980665
1765061450016,3.6088471999999996,10.0812362,-1.1767979999999998
1765061450022,3.6873004,9.80665,-1.2552512
1765061450028,3.6873004,9.80665,-1.2552512
1765061450034,4.0403398,9.845876599999999,-1.2160246
1765061450040,4.0403398,9.845876599999999,-1.2160246
1765061450046,3.8834334,9.8851032,-1.2552512
1765061450052,3.8834334,9.8851032,-1.2552512
1765061450058,3.4911673999999997,9.845876599999999,-1.3337044
1765061450064,3.6873004,9.8851032,-1.2160246
1765061450070,3.6873004,9.8851032,-1.2160246
1765061450076,3.726527,10.0420096,-1.2552512
1765061450082,3.726527,10.0420096,-1.2552512
1765061450088,3.92266,10.0420096,-1.2944778
1765061450094,3.8442068,9.8851032,-1.2160246
1765061450100,3.8442068,9.8851032,-1.2160246
1765061450106,3.8049801999999997,9.571290399999999,-1.2552512
1765061450146,3.6480737999999997,9.414383999999998,-1.1375714
1765061450152,3.6480737999999997,9.414383999999998,-1.1375714
1765061450158,3.5696205999999995,9.845876599999999,-1.2552512
1765061450164,3.6480737999999997,9.9635564,-1.2160246
1765061450170,3.6480737999999997,9.9635564,-1.2160246
1765061450176,3.5696205999999995,9.924329799999999,-1.2944778
1765061450182,3.5696205999999995,9.924329799999999,-1.2944778
1765061450188,3.2950344,9.6889702,-1.1375714
1765061450194,3.4911673999999997,9.649743599999999,-1.0983448
1765061450200,3.4911673999999997,9.649743599999999,-1.0983448
1765061450206,3.7657536,9.3751574,-1.0983448
1765061450212,3.7657536,9.3751574,-1.0983448
1765061450218,3.8049801999999997,9.3751574,-1.1767979999999998
1765061450224,3.8049801999999997,9.3751574,-1.1767979999999998
1765061450230,3.8442068,9.218251,-1.0983448
1765061450236,3.6873004,9.2967042,-0.9414384
1765061450242,3.6873004,9.2967042,-0.9414384
1765061450248,3.4127142,9.414383999999998,-0.9022117999999999
1765061450254,3.4127142,9.414383999999998,-0.9022117999999999
1765061450260,3.2950344,9.2574776,-0.8237586
1765061450301,3.2558078,9.414383999999998,-1.0591182
1765061450307,3.2558078,9.5320638,-1.0591182
1765061450313,3.2558078,9.5320638,-1.0591182
1765061450319,3.5696205999999995,9.492837199999999,-1.0198916
1765061450325,3.5696205999999995,9.492837199999999,-1.0198916
1765061450331,3.8049801999999997,9.414383999999998,-1.0198916
1765061450337,3.6088471999999996,9.492837199999999,-1.0198916
1765061450343,3.6088471999999996,9.492837199999999,-1.0198916
1765061450349,3.2165812,9.414383999999998,-0.980665
1765061450355,3.2165812,9.414383999999998,-0.980665
1765061450361,2.9812215999999996,9.1790244,-0.9414384
1765061450367,2.9812215999999996,9.1790244,-0.9414384
1765061450373,3.334261,9.218251,-0.980665
1765061450379,3.4127142,9.610517,-0.980665
1765061450385,3.4127142,9.610517,-0.980665
1765061450391,3.4127142,9.571290399999999,-0.980665
1765061450397,3.4127142,9.571290399999999,-0.980665
1765061450403,3.0204481999999997,9.2574776,-0.8237586
1765061450409,2.941995,9.1790244,-0.8237586
