timestamp_ms,ax,ay,az
1765063884685,-2.1182364,-8.747531799999999,0.0784532
1765063884726,-2.9027684,-9.5320638,0.1569064
1765063884732,-3.4127142,-9.2967042,0.0392266
1765063884738,-3.6088471999999996,-9.5320638,0.1569064
1765063884744,-3.6088471999999996,-9.5320638,0.1569064
1765063884750,-3.6088471999999996,-9.6889702,0.1569064
1765063884756,-3.6088471999999996,-9.6889702,0.1569064
1765063884762,-3.4519407999999996,-9.2967042,0.0784532
1765063884768,-3.334261,-9.1397978,0.0392266
1765063884774,-3.334261,-9.1397978,0.0392266
1765063884780,-3.334261,-8.8652116,0.0
1765063884786,-3.334261,-8.8652116,0.0
1765063884792,-2.8635417999999997,-8.629852,-0.0392266
1765063884798,-2.2751428,-9.3751574,0.1176798
1765063884804,-2.2751428,-9.3751574,0.1176798
1765063884810,-2.157463,-9.649743599999999,0.3138128
1765063884816,-2.157463,-9.649743599999999,0.3138128
1765063884822,-1.8044235999999998,-9.5320638,0.1176798
1765063884828,-1.2552512,-9.218251,0.1176798
1765063884834,-1.2552512,-9.218251,0.1176798
1765063884840,-0.5099458,-8.825985,0.0784532
1765063884880,2.5889556,-9.3751574,0.43149259999999995
1765063884886,2.5889556,-9.3751574,0.43149259999999995
1765063884892,3.2165812,-9.0613446,0.2353596
1765063884898,3.2165812,-9.0613446,0.2353596
1765063884904,2.549729,-9.3751574,0.1569064
1765063884910,0.9022117999999999,-9.845876599999999,0.1569064
1765063884916,0.9022117999999999,-9.845876599999999,0.1569064
1765063884922,0.392266,-11.2972608,-0.0784532
1765063884928,0.392266,-11.2972608,-0.0784532
1765063884934,-0.5491724,-13.140911000000001,0.1569064
1765063884940,-2.4712758,-10.983448000000001,-0.1569064
1765063884946,-2.4712758,-10.983448000000001,-0.1569064
1765063884952,-3.4911673999999997,-8.5513988,-0.7060788
1765063884958,-3.4911673999999997,-8.5513988,-0.7060788
1765063884964,-3.7657536,-8.7083052,-0.392266
1765063884970,-4.0011132,-8.8652116,-0.5491724
1765063884976,-4.0011132,-8.8652116,-0.5491724
1765063884982,-3.6873004,-8.433719,-0.5883989999999999
1765063884988,-3.6873004,-8.433719,-0.5883989999999999
1765063884994,-3.726527,-8.7083052,-0.5491724
1765063885035,-3.5696205999999995,-9.3359308,-0.980665
1765063885041,-2.8635417999999997,-11.2188076,-0.980665
1765063885047,-2.8635417999999997,-11.2188076,-0.980665
1765063885053,-2.941995,-13.337044,-0.5099458
1765063885059,-2.941995,-13.337044,-0.5099458
1765063885065,-2.0005566,-11.454167199999999,-1.1375714
1765063885071,-2.0005566,-11.454167199999999,-1.1375714
1765063885077,-1.2944778,-10.4735022,-1.3729310000000001
1765063885083,-0.7060788,-11.0226746,-1.1767979999999998
1765063885089,-0.7060788,-11.0226746,-1.1767979999999998
1765063885095,-0.196133,-10.9049948,-1.2160246
1765063885101,-0.196133,-10.9049948,-1.2160246
1765063885107,-0.784532,-10.1596894,-1.2552512
1765063885113,-1.8436502,-9.1397978,-1.3729310000000001
1765063885119,-1.8436502,-9.1397978,-1.3729310000000001
1765063885125,-3.1773545999999997,-9.0613446,-1.3337044
1765063885131,-3.1773545999999997,-9.0613446,-1.3337044
1765063885137,-3.6873004,-9.845876599999999,-1.0983448
1765063885143,-3.3734876000000003,-9.9635564,-1.0983448
1765063885149,-3.3734876000000003,-9.9635564,-1.0983448
1765063885189,-1.9221034,-8.9044382,-1.4906107999999998
1765063885195,-1.5298374,-9.80665,-1.3729310000000001
1765063885201,-1.5298374,-9.80665,-1.3729310000000001
1765063885207,-1.5298374,-10.3165958,-1.2552512
1765063885213,-1.5298374,-10.3165958,-1.2552512
1765063885219,-1.6082906,-10.9442214,-1.1375714
1765063885225,-1.8828768,-10.002782999999999,-1.2944778
1765063885231,-1.8828768,-10.002782999999999,-1.2944778
1765063885237,-2.1182364,-8.7867584,-1.4513842
1765063885243,-2.1182364,-8.7867584,-1.4513842
1765063885249,-2.2751428,-9.6889702,-1.2552512
1765063885255,-2.7458620000000002,-10.198916,-1.2160246
1765063885261,-2.7458620000000002,-10.198916,-1.2160246
1765063885267,-2.3143694,-9.4536106,-1.2944778
1765063885273,-2.3143694,-9.4536106,-1.2944778
1765063885279,-1.8828768,-9.218251,-1.2552512
1765063885285,-1.8828768,-8.825985,-1.1375714
1765063885291,-1.8828768,-8.825985,-1.1375714
1765063885297,-2.2751428,-8.1199062,-1.2944778
1765063885303,-2.2751428,-8.1199062,-1.2944778
1765063885344,-2.6674088,-8.316039199999999,-1.2552512
1765063885350,-1.4906107999999998,-9.6889702,-1.1375714
1765063885356,-1.3337044,-10.5127288,-0.9022117999999999
1765063885362,-1.3337044,-10.5127288,-0.9022117999999999
1765063885368,-1.6082906,-9.414383999999998,-1.2160246
1765063885374,-1.6082906,-9.414383999999998,-1.2160246
1765063885380,-1.3337044,-9.2574776,-1.4121576
1765063885386,-1.3337044,-9.2574776,-1.4121576
1765063885392,-1.2160246,-9.7674234,-1.2552512
1765063885398,-1.2944778,-9.649743599999999,-1.3729310000000001
1765063885404,-1.2944778,-9.649743599999999,-1.3729310000000001
1765063885410,-1.4513842,-9.80665,-1.2552512
1765063885416,-1.4513842,-9.80665,-1.2552512
1765063885422,-1.3729310000000001,-9.7674234,-1.1767979999999998
1765063885428,-1.2552512,-9.414383999999998,-1.0983448
1765063885434,-1.2552512,-9.414383999999998,-1.0983448
1765063885440,-1.8436502,-8.9044382,-1.0983448
1765063885446,-1.8436502,-8.9044382,-1.0983448
1765063885452,-2.6674088,-8.2768126,-1.1767979999999998
1765063885457,-3.2950344,-7.84532,-1.2944778
1765063885498,-1.2160246,-11.061901200000001,-1.1375714
1765063885504,-1.2160246,-11.061901200000001,-1.1375714
1765063885510,-0.8237586,-11.1011278,-1.3337044
1765063885516,-0.8237586,-11.1011278,-1.3337044
1765063885522,0.0784532,-10.6304086,-1.4121576
1765063885528,0.3138128,-9.8851032,-1.569064
1765063885534,0.3138128,-9.8851032,-1.569064
1765063885540,-0.1176798,-9.414383999999998,-1.6475172
1765063885546,-0.1176798,-9.414383999999998,-1.6475172
1765063885552,-1.0198916,-9.1397978,-1.4121576
1765063885558,-1.0198916,-9.1397978,-1.4121576
1765063885564,-2.2359162,-9.1005712,-1.4121576
1765063885570,-2.3143694,-9.492837199999999,-1.4906107999999998
1765063885576,-2.3143694,-9.492837199999999,-1.4906107999999998
1765063885582,-2.157463,-10.0420096,-1.4906107999999998
1765063885588,-2.157463,-10.0420096,-1.4906107999999998
1765063885594,-2.2751428,-9.924329799999999,-1.3729310000000001
1765063885600,-2.1182364,-9.6889702,-1.3337044
1765063885606,-2.1182364,-9.6889702,-1.3337044
1765063885612,-2.0790097999999997,-9.2967042,-1.3729310000000001
1765063885652,-0.7060788,-9.1790244,-1.6082906
1765063885658,-0.7060788,-9.1790244,-1.6082906
1765063885664,-1.3729310000000001,-8.9436648,-1.6867438000000001
1765063885670,-2.0397832,-9.2574776,-1.569064
1765063885676,-2.0397832,-9.2574776,-1.569064
1765063885682,-2.2359162,-9.8851032,-1.4121576
1765063885688,-2.2359162,-9.8851032,-1.4121576
1765063885694,-2.549729,-9.0613446,-1.5298374
1765063885700,-2.549729,-9.0613446,-1.5298374
1765063885706,-2.5105024,-8.7083052,-1.7259703999999998
1765063885712,-2.6281822,-9.414383999999998,-1.569064
1765063885718,-2.6281822,-9.414383999999998,-1.569064
1765063885724,-2.4320492,-9.845876599999999,-1.569064
1765063885730,-2.4320492,-9.845876599999999,-1.569064
1765063885736,-1.8436502,-9.80665,-1.569064
1765063885742,-2.2359162,-9.022118,-1.6475172
1765063885748,-2.2359162,-9.022118,-1.6475172
1765063885754,-1.569064,-8.8652116,-1.6475172
1765063885760,-1.569064,-8.8652116,-1.6475172
1765063885766,-1.0198916,-9.7281968,-1.4513842
1765063885808,-2.1966896,-9.218251,-1.1375714
1765063885814,-1.6082906,-9.218251,-0.9414384
1765063885820,-1.6082906,-9.218251,-0.9414384
1765063885826,-2.3535959999999996,-8.747531799999999,-1.0591182
1765063885832,-2.3535959999999996,-8.747531799999999,-1.0591182
1765063885838,-1.8044235999999998,-8.1199062,-1.2552512
1765063885844,-0.5491724,-8.9436648,-1.1375714
1765063885850,-0.5491724,-8.9436648,-1.1375714
1765063885856,0.196133,-9.0613446,-1.2552512
1765063885862,0.196133,-9.0613446,-1.2552512
1765063885868,0.4707192,-8.5121722,-1.3337044
1765063885874,-0.3138128,-8.669078599999999,-1.2552512
1765063885880,-0.3138128,-8.669078599999999,-1.2552512
1765063885886,-1.5298374,-8.9436648,-1.2160246
1765063885891,-1.5298374,-8.9436648,-1.2160246
1765063885898,-1.6082906,-9.5320638,-1.0591182
1765063885903,-1.2160246,-9.4536106,-1.1767979999999998
1765063885909,-1.2160246,-9.4536106,-1.1767979999999998
1765063885915,-1.0983448,-8.433719,-1.2944778
1765063885921,-1.0983448,-8.433719,-1.2944778
1765063885962,-2.1182364,-8.5513988,-1.4906107999999998
1765063885968,-2.7066354,-8.825985,-1.569064
1765063885974,-2.7066354,-8.825985,-1.569064
1765063885980,-3.138128,-8.9436648,-1.4121576
1765063885986,-3.3734876000000003,-8.9828914,-1.4906107999999998
1765063885992,-3.3734876000000003,-8.9828914,-1.4906107999999998
1765063885998,-3.2558078,-8.7083052,-1.569064
1765063886004,-3.2558078,-8.7083052,-1.569064
1765063886010,-2.7066354,-8.0806796,-1.8436502
1765063886016,-2.941995,-8.0806796,-2.0397832
1765063886022,-2.941995,-8.0806796,-2.0397832
1765063886028,-2.6674088,-8.9436648,-2.1182364
1765063886034,-2.6674088,-8.9436648,-2.1182364
1765063886040,-2.0790097999999997,-10.277369199999999,-2.0790097999999997
1765063886046,-1.4121576,-10.5519554,-2.0790097999999997
1765063886052,-1.4121576,-10.5519554,-2.0790097999999997
1765063886058,-0.8237586,-10.0812362,-2.4320492
1765063886064,-0.8237586,-10.0812362,-2.4320492
1765063886070,-0.392266,-9.492837199999999,-2.7066354
1765063886076,-0.392266,-9.492837199999999,-2.7066354
1765063886116,-0.2745862,-9.4536106,-3.3734876000000003
1765063886122,0.0392266,-10.2381426,-3.3734876000000003
1765063886128,-0.1569064,-9.8851032,-3.334261
1765063886134,-0.1569064,-9.8851032,-3.334261
1765063886140,-0.5883989999999999,-8.433719,-3.6873004
1765063886146,-0.5883989999999999,-8.433719,-3.6873004
1765063886152,-1.0983448,-7.4922806,-3.92266
1765063886158,-0.7060788,-7.7276402,-4.0403398
1765063886164,-0.7060788,-7.7276402,-4.0403398
1765063886170,0.2745862,-8.4729456,-3.8834334
1765063886176,0.2745862,-8.4729456,-3.8834334
1765063886182,0.43149259999999995,-9.0613446,-3.92266
1765063886188,0.1569064,-9.7674234,-3.8049801999999997
1765063886194,0.1569064,-9.7674234,-3.8049801999999997
1765063886200,-1.2552512,-10.9442214,-3.6088471999999996
1765063886206,-1.2552512,-10.9442214,-3.6088471999999996
1765063886212,-2.0790097999999997,-12.1210194,-3.6873004
1765063886218,-3.726527,-12.1210194,-3.5696205999999995
1765063886224,-3.726527,-12.1210194,-3.5696205999999995
