timestamp_ms,ax,ay,az
1765061259924,-0.9022117999999999,-9.571290399999999,-0.3530394
1765061259964,-1.0983448,-9.845876599999999,-0.2745862
1765061259970,-1.3729310000000001,-9.5320638,-0.3138128
1765061259976,-1.3729310000000001,-9.5320638,-0.3138128
1765061259982,-1.2944778,-9.2967042,-0.3530394
1765061259988,-1.3337044,-9.649743599999999,-0.2353596
1765061259994,-1.3337044,-9.649743599999999,-0.2353596
1765061260000,-1.1767979999999998,-9.6889702,-0.2353596
1765061260006,-1.1767979999999998,-9.6889702,-0.2353596
1765061260012,-1.0198916,-9.6889702,-0.0784532
1765061260018,-0.6276256,-9.492837199999999,-0.0392266
1765061260024,-0.6276256,-9.492837199999999,-0.0392266
1765061260030,-0.4707192,-9.414383999999998,0.0
1765061260036,-0.4707192,-9.414383999999998,0.0
1765061260042,-0.5099458,-9.414383999999998,0.0392266
1765061260048,-0.5883989999999999,-9.2574776,-0.0784532
1765061260054,-0.5883989999999999,-9.2574776,-0.0784532
1765061260060,-1.0591182,-9.492837199999999,-0.0392266
1765061260066,-1.0591182,-9.492837199999999,-0.0392266
1765061260072,-1.2944778,-9.3751574,-0.0784532
1765061260078,-1.4121576,-9.610517,-0.2353596
1765061260119,-0.7453053999999999,-10.002782999999999,-0.5491724
1765061260125,-0.7453053999999999,-10.002782999999999,-0.5491724
1765061260131,-0.5883989999999999,-10.002782999999999,-0.4707192
1765061260137,-0.5883989999999999,-10.002782999999999,-0.4707192
1765061260143,-0.3530394,-9.9635564,-0.43149259999999995
1765061260149,-0.3530394,-9.9635564,-0.43149259999999995
1765061260155,-0.1176798,-9.8851032,-0.4707192
1765061260161,-0.1176798,-9.8851032,-0.392266
1765061260167,-0.1176798,-9.8851032,-0.392266
1765061260173,0.0,-9.649743599999999,-0.392266
1765061260179,0.0,-9.649743599999999,-0.392266
1765061260185,0.0784532,-9.649743599999999,-0.43149259999999995
1765061260191,-0.2353596,-9.7281968,-0.43149259999999995
1765061260197,-0.2353596,-9.7281968,-0.43149259999999995
1765061260203,-0.2353596,-9.7674234,-0.392266
1765061260209,-0.2353596,-9.7674234,-0.392266
1765061260215,-0.0784532,-9.5320638,-0.4707192
1765061260221,-0.1569064,-9.7281968,-0.5099458
1765061260227,-0.1569064,-9.7281968,-0.5099458
1765061260233,-0.0392266,-9.7674234,-0.43149259999999995
1765061260273,-0.7453053999999999,-9.4536106,-0.4707192
1765061260279,-0.7453053999999999,-9.4536106,-0.4707192
1765061260285,-0.5099458,-9.571290399999999,-0.392266
1765061260291,-0.5099458,-9.924329799999999,-0.5099458
1765061260297,-0.5099458,-9.924329799999999,-0.5099458
1765061260303,-0.5883989999999999,-9.924329799999999,-0.5883989999999999
1765061260309,-0.5883989999999999,-9.924329799999999,-0.5883989999999999
1765061260315,-0.7060788,-10.0420096,-0.5883989999999999
1765061260321,-0.7060788,-10.0420096,-0.5883989999999999
1765061260327,-0.6668522,-10.1204628,-0.5099458
1765061260333,-0.6668522,-10.0812362,-0.7060788
1765061260339,-0.6668522,-10.0812362,-0.7060788
1765061260345,-0.9414384,-10.002782999999999,-0.7060788
1765061260351,-0.9414384,-10.002782999999999,-0.7060788
1765061260357,-1.0198916,-9.845876599999999,-0.7060788
1765061260363,-1.4513842,-9.80665,-0.6668522
1765061260369,-1.4513842,-9.80665,-0.6668522
1765061260375,-1.6082906,-9.80665,-0.5491724
1765061260381,-1.6082906,-9.80665,-0.5491724
1765061260387,-1.7259703999999998,-9.649743599999999,-0.3530394
1765061260428,-0.6668522,-9.2574776,-0.2745862
1765061260434,-1.0198916,-9.7281968,-0.196133
1765061260440,-1.0198916,-9.7281968,-0.196133
1765061260446,-1.0591182,-9.7281968,-0.3138128
1765061260452,-1.0591182,-9.7281968,-0.3138128
1765061260458,-0.980665,-9.7281968,-0.3138128
1765061260464,-0.980665,-9.7281968,-0.3138128
1765061260470,-1.1767979999999998,-10.002782999999999,-0.196133
1765061260476,-1.3337044,-9.610517,-0.3530394
1765061260482,-1.3337044,-9.610517,-0.3530394
1765061260488,-1.765197,-9.3751574,-0.4707192
1765061260494,-1.765197,-9.3751574,-0.4707192
1765061260500,-2.0397832,-9.3359308,-0.5491724
1765061260506,-2.157463,-9.1790244,-0.6276256
1765061260512,-2.157463,-9.1790244,-0.6276256
1765061260518,-2.3535959999999996,-9.3359308,-0.5099458
1765061260524,-2.3535959999999996,-9.3359308,-0.5099458
1765061260530,-2.157463,-9.3751574,-0.4707192
1765061260536,-1.7259703999999998,-9.1005712,-0.43149259999999995
1765061260542,-1.7259703999999998,-9.1005712,-0.43149259999999995
1765061260582,-1.2160246,-9.845876599999999,-0.43149259999999995
1765061260588,-1.4121576,-9.7674234,-0.4707192
1765061260594,-1.4121576,-9.7674234,-0.4707192
1765061260600,-1.8436502,-9.80665,-0.5491724
1765061260606,-2.3535959999999996,-9.649743599999999,-0.6276256
1765061260612,-2.3535959999999996,-9.649743599999999,-0.6276256
1765061260618,-2.5105024,-9.4536106,-0.5883989999999999
1765061260624,-2.5105024,-9.4536106,-0.5883989999999999
1765061260630,-2.6674088,-9.2574776,-0.5883989999999999
1765061260636,-2.6674088,-9.2574776,-0.5883989999999999
1765061260642,-2.4712758,-9.1397978,-0.5099458
1765061260648,-2.3143694,-9.4536106,-0.5099458
1765061260654,-2.3143694,-9.4536106,-0.5099458
1765061260660,-2.0005566,-9.218251,-0.6276256
1765061260666,-2.0005566,-9.218251,-0.6276256
1765061260672,-2.0790097999999997,-9.2967042,-0.392266
1765061260678,-2.0397832,-9.3751574,-0.4707192
1765061260684,-2.0397832,-9.3751574,-0.4707192
1765061260690,-1.9221034,-9.218251,-0.4707192
1765061260696,-1.9221034,-9.218251,-0.4707192
1765061260737,-2.8635417999999997,-9.0613446,-0.392266
1765061260743,-2.7458620000000002,-8.9828914,-0.43149259999999995
1765061260749,-2.6674088,-8.629852,-0.3530394
1765061260755,-2.6674088,-8.629852,-0.3530394
1765061260761,-2.7458620000000002,-8.5121722,-0.3530394
1765061260767,-2.7458620000000002,-8.5121722,-0.3530394
1765061260773,-2.5105024,-8.825985,-0.2745862
1765061260779,-2.5105024,-8.825985,-0.2745862
1765061260785,-2.0397832,-9.1005712,-0.2745862
1765061260791,-2.1182364,-9.3751574,-0.392266
1765061260797,-2.1182364,-9.3751574,-0.392266
1765061260803,-2.1966896,-9.649743599999999,-0.5491724
1765061260809,-2.1966896,-9.649743599999999,-0.5491724
1765061260815,-2.2751428,-9.845876599999999,-0.6276256
1765061260821,-2.3535959999999996,-9.80665,-0.6668522
1765061260827,-2.3535959999999996,-9.80665,-0.6668522
1765061260833,-2.3143694,-9.845876599999999,-0.7060788
1765061260839,-2.3143694,-9.845876599999999,-0.7060788
1765061260845,-2.4320492,-9.8851032,-0.7453053999999999
1765061260851,-2.3928225999999997,-9.80665,-0.6276256
1765061260891,-2.5889556,-9.571290399999999,-0.4707192
1765061260897,-2.5889556,-9.571290399999999,-0.4707192
1765061260903,-2.7850886,-9.4536106,-0.5099458
1765061260909,-2.7850886,-9.4536106,-0.5099458
1765061260915,-3.0596748,-9.0613446,-0.7453053999999999
1765061260921,-3.5696205999999995,-9.3359308,-0.7453053999999999
1765061260927,-3.5696205999999995,-9.3359308,-0.7453053999999999
1765061260933,-3.726527,-9.3751574,-0.784532
1765061260939,-3.726527,-9.3751574,-0.784532
1765061260945,-3.726527,-9.2574776,-0.7453053999999999
1765061260951,-3.726527,-9.2574776,-0.7453053999999999
1765061260957,-3.4519407999999996,-9.492837199999999,-0.7060788
1765061260963,-3.2950344,-9.414383999999998,-0.6668522
1765061260969,-3.2950344,-9.414383999999998,-0.6668522
1765061260975,-3.726527,-9.1397978,-0.5883989999999999
1765061260981,-3.726527,-9.1397978,-0.5883989999999999
1765061260987,-3.6088471999999996,-8.9828914,-0.5099458
1765061260993,-3.7657536,-8.825985,-0.43149259999999995
1765061260999,-3.7657536,-8.825985,-0.43149259999999995
1765061261005,-3.92266,-8.669078599999999,-0.3530394
1765061261046,-3.8834334,-8.629852,-0.1176798
1765061261052,-3.8834334,-8.629852,-0.1176798
1765061261058,-3.8442068,-8.590625399999999,-0.0784532
1765061261064,-4.0011132,-8.5121722,-0.1176798
1765061261070,-4.0011132,-8.5121722,-0.1176798
1765061261076,-3.8834334,-8.5121722,-0.1176798
1765061261082,-3.8834334,-8.5121722,-0.1176798
1765061261088,-3.8049801999999997,-8.7867584,-0.1176798
1765061261094,-3.9618866,-8.7083052,-0.2353596
1765061261100,-3.9618866,-8.7083052,-0.2353596
1765061261106,-3.7657536,-8.7867584,-0.3138128
1765061261112,-3.7657536,-8.7867584,-0.3138128
1765061261118,-3.6088471999999996,-9.2574776,-0.2745862
1765061261124,-3.8049801999999997,-9.3751574,-0.392266
1765061261130,-3.8049801999999997,-9.3751574,-0.392266
1765061261136,-3.8049801999999997,-8.8652116,-0.4707192
1765061261142,-3.8049801999999997,-8.8652116,-0.4707192
1765061261148,-3.8442068,-9.1397978,-0.4707192
1765061261154,-3.8442068,-9.1397978,-0.4707192
1765061261160,-3.4519407999999996,-9.1790244,-0.4707192
1765061261201,-4.1972461999999995,-8.7867584,-0.5491724
1765061261207,-4.707191999999999,-8.590625399999999,-0.6668522
1765061261213,-4.707191999999999,-8.590625399999999,-0.6668522
1765061261219,-4.8248717999999995,-8.669078599999999,-0.6668522
1765061261225,-4.8248717999999995,-8.669078599999999,-0.6668522
1765061261231,-4.5502856,-8.5121722,-0.7060788
1765061261237,-4.2756994,-8.9044382,-0.5883989999999999
1765061261243,-4.2756994,-8.9044382,-0.5883989999999999
1765061261249,-3.8049801999999997,-9.1397978,-0.5883989999999999
1765061261255,-3.8049801999999997,-9.1397978,-0.5883989999999999
1765061261261,-3.4519407999999996,-9.1005712,-0.5491724
1765061261267,-3.6480737999999997,-9.218251,-0.4707192
1765061261273,-3.6480737999999997,-9.218251,-0.4707192
1765061261279,-3.4519407999999996,-8.9436648,-0.5099458
1765061261285,-3.4519407999999996,-8.9436648,-0.5099458
1765061261291,-3.7657536,-8.9828914,-0.4707192
1765061261297,-4.2756994,-9.022118,-0.4707192
1765061261303,-4.2756994,-9.022118,-0.4707192
1765061261309,-4.158019599999999,-8.669078599999999,-0.4707192
1765061261315,-4.158019599999999,-8.669078599999999,-0.4707192
1765061261355,-4.4326058,-8.669078599999999,-0.6668522
1765061261361,-4.2364728,-8.825985,-0.5883989999999999
1765061261367,-4.2364728,-8.825985,-0.5883989999999999
1765061261373,-4.4326058,-8.7867584,-0.5883989999999999
1765061261379,-4.1972461999999995,-8.669078599999999,-0.5883989999999999
1765061261385,-4.1972461999999995,-8.669078599999999,-0.5883989999999999
1765061261391,-4.0403398,-9.022118,-0.5883989999999999
1765061261397,-4.0403398,-9.022118,-0.5883989999999999
1765061261403,-4.1972461999999995,-8.9436648,-0.5491724
1765061261409,-4.3933792,-8.825985,-0.6276256
1765061261415,-4.3933792,-8.825985,-0.6276256
1765061261421,-4.6679654,-8.9044382,-0.6276256
1765061261427,-4.6679654,-8.9044382,-0.6276256
1765061261433,-4.6287388,-8.747531799999999,-0.6276256
1765061261439,-4.4718324,-8.8652116,-0.5491724
1765061261445,-4.4718324,-8.8652116,-0.5491724
1765061261451,-4.314926,-8.9828914,-0.5099458
1765061261457,-4.314926,-8.9828914,-0.5099458
1765061261463,-4.118792999999999,-8.9044382,-0.5491724
