timestamp_ms,ax,ay,az
1765061356405,-1.5298374,-9.1005712,0.7060788
1765061356446,-2.6281822,-8.4729456,-0.0392266
1765061356452,-2.6281822,-8.4729456,-0.0392266
1765061356458,-2.8635417999999997,-8.9436648,0.0
1765061356464,-2.8635417999999997,-8.9436648,0.0
1765061356470,-2.5105024,-8.9828914,0.0392266
1765061356476,-2.4712758,-9.022118,0.0392266
1765061356482,-2.4712758,-9.022118,0.0392266
1765061356488,-2.3535959999999996,-9.022118,0.0
1765061356494,-2.3535959999999996,-9.022118,0.0
1765061356500,-1.9221034,-9.4536106,0.0784532
1765061356506,-1.569064,-9.80665,-0.196133
1765061356512,-1.569064,-9.80665,-0.196133
1765061356518,-2.0397832,-9.9635564,-0.2353596
1765061356524,-2.0397832,-9.9635564,-0.2353596
1765061356530,-2.157463,-9.845876599999999,-0.43149259999999995
1765061356536,-2.3143694,-9.845876599999999,-0.7453053999999999
1765061356542,-2.3143694,-9.845876599999999,-0.7453053999999999
1765061356548,-2.549729,-10.3165958,-0.784532
1765061356554,-2.549729,-10.3165958,-0.784532
1765061356560,-2.3143694,-10.3558224,-0.7453053999999999
1765061356600,-0.6668522,-10.198916,-0.9022117999999999
1765061356606,-1.0198916,-10.1204628,-1.0198916
1765061356612,-1.0198916,-10.1204628,-1.0198916
1765061356618,-1.5298374,-10.4735022,-1.1767979999999998
1765061356624,-1.5298374,-10.4735022,-1.1767979999999998
1765061356630,-1.6082906,-10.591182,-0.9022117999999999
1765061356636,-1.6082906,-10.591182,-0.9022117999999999
1765061356642,-1.8044235999999998,-9.8851032,-0.9414384
1765061356648,-1.765197,-9.218251,-0.8237586
1765061356654,-1.765197,-9.218251,-0.8237586
1765061356660,-1.8436502,-8.9436648,-0.5883989999999999
1765061356666,-1.8436502,-8.9436648,-0.5883989999999999
1765061356672,-2.0005566,-8.7083052,-0.5491724
1765061356678,-2.1182364,-8.9828914,-0.5491724
1765061356684,-2.1182364,-8.9828914,-0.5491724
1765061356690,-2.3928225999999997,-9.022118,-0.392266
1765061356696,-2.3928225999999997,-9.022118,-0.392266
1765061356702,-2.549729,-8.9044382,-0.43149259999999995
1765061356708,-2.5105024,-9.414383999999998,-0.392266
1765061356714,-2.5105024,-9.414383999999998,-0.392266
1765061356755,-2.9812215999999996,-8.747531799999999,-0.6668522
1765061356761,-3.334261,-8.825985,-0.7453053999999999
1765061356767,-3.334261,-8.825985,-0.7453053999999999
1765061356773,-3.6873004,-9.022118,-0.7453053999999999
1765061356779,-3.8442068,-8.629852,-1.0198916
1765061356785,-3.8442068,-8.629852,-1.0198916
1765061356791,-4.118792999999999,-9.1790244,-1.1767979999999998
1765061356797,-4.118792999999999,-9.1790244,-1.1767979999999998
1765061356803,-4.0011132,-9.1790244,-1.2944778
1765061356809,-4.0011132,-9.1790244,-1.2944778
1765061356815,-3.8049801999999997,-9.1005712,-1.4513842
1765061356821,-3.6873004,-9.610517,-1.4121576
1765061356827,-3.6873004,-9.610517,-1.4121576
1765061356833,-3.5696205999999995,-9.2967042,-1.569064
1765061356839,-3.5696205999999995,-9.2967042,-1.569064
1765061356845,-3.8834334,-9.4536106,-1.7259703999999998
1765061356851,-3.8442068,-9.80665,-1.569064
1765061356857,-3.8442068,-9.80665,-1.569064
1765061356863,-3.92266,-9.5320638,-1.6082906
1765061356869,-3.92266,-9.5320638,-1.6082906
1765061356910,-4.9817782,-9.022118,-1.6082906
1765061356916,-4.6287388,-9.492837199999999,-1.4513842
1765061356922,-4.5502856,-9.5320638,-1.4906107999999998
1765061356928,-4.5502856,-9.5320638,-1.4906107999999998
1765061356934,-4.3933792,-9.3751574,-1.4121576
1765061356940,-4.3933792,-9.3751574,-1.4121576
1765061356946,-3.726527,-9.0613446,-1.2944778
1765061356952,-3.334261,-8.747531799999999,-0.980665
1765061356958,-3.334261,-8.747531799999999,-0.980665
1765061356964,-3.2558078,-8.8652116,-0.5883989999999999
1765061356970,-3.2558078,-8.8652116,-0.5883989999999999
1765061356976,-3.5696205999999995,-8.7867584,-0.2745862
1765061356982,-3.5696205999999995,-8.7867584,-0.2745862
1765061356988,-3.6873004,-8.316039199999999,0.0
1765061356994,-3.8049801999999997,-8.0806796,0.0392266
1765061357000,-3.8049801999999997,-8.0806796,0.0392266
1765061357006,-4.5502856,-8.1591328,0.0392266
1765061357012,-4.5502856,-8.1591328,0.0392266
1765061357018,-4.5895122,-7.8060934,0.0
1765061357024,-4.9817782,-7.7276402,-0.1176798
1765061357064,-5.2563644,-7.5315072,-0.5491724
1765061357070,-5.2563644,-7.5315072,-0.5491724
1765061357076,-5.1779112,-7.6491869999999995,-0.5099458
1765061357082,-5.1779112,-7.6491869999999995,-0.5099458
1765061357088,-5.1779112,-7.8845466,-0.4707192
1765061357094,-5.0210048,-7.4922806,-0.7453053999999999
1765061357100,-5.0210048,-7.4922806,-0.7453053999999999
1765061357107,-5.7663101999999995,-7.3353741999999995,-0.8629851999999999
1765061357113,-5.7663101999999995,-7.3353741999999995,-0.8629851999999999
1765061357119,-5.962443199999999,-7.6491869999999995,-0.8629851999999999
1765061357125,-5.687856999999999,-7.4138274,-0.8237586
1765061357131,-5.687856999999999,-7.4138274,-0.8237586
1765061357137,-5.6486304,-7.4138274,-0.8237586
1765061357143,-5.6486304,-7.4138274,-0.8237586
1765061357149,-5.4917240000000005,-7.5315072,-0.8237586
1765061357155,-5.1779112,-7.7668668,-0.5491724
1765061357161,-5.1779112,-7.7668668,-0.5491724
1765061357167,-5.0210048,-8.1983594,-0.4707192
1765061357173,-5.0210048,-8.1983594,-0.4707192
1765061357179,-5.1779112,-8.1199062,-0.392266
1765061357219,-5.8055368,-7.6884136,-0.5883989999999999
1765061357225,-5.8055368,-7.6884136,-0.5883989999999999
1765061357231,-5.727083599999999,-7.5707338,-0.6276256
1765061357237,-5.88399,-7.5707338,-0.7453053999999999
1765061357243,-5.88399,-7.5707338,-0.7453053999999999
1765061357249,-6.001669799999999,-7.5707338,-0.7060788
1765061357255,-6.001669799999999,-7.5707338,-0.7060788
1765061357261,-6.001669799999999,-7.6491869999999995,-0.784532
1765061357267,-6.040896399999999,-8.0022264,-0.7453053999999999
1765061357273,-6.040896399999999,-8.0022264,-0.7453053999999999
1765061357279,-5.727083599999999,-8.0806796,-0.8629851999999999
1765061357285,-5.727083599999999,-8.0806796,-0.8629851999999999
1765061357291,-5.687856999999999,-7.84532,-0.9414384
1765061357297,-5.962443199999999,-7.6884136,-1.0198916
1765061357303,-5.962443199999999,-7.6884136,-1.0198916
1765061357309,-6.2370294,-7.5707338,-1.2160246
1765061357315,-6.2370294,-7.5707338,-1.2160246
1765061357321,-6.5116156,-7.5707338,-1.3337044
1765061357327,-6.8254284,-7.609960399999999,-1.3337044
1765061357333,-6.8254284,-7.609960399999999,-1.3337044
1765061357374,-6.8254284,-7.9237732,-1.4121576
1765061357380,-6.4331624,-7.9237732,-1.2552512
1765061357386,-6.4331624,-7.9237732,-1.2552512
1765061357392,-6.1585762,-8.3552658,-1.2552512
1765061357398,-6.1585762,-8.3552658,-1.2552512
1765061357404,-6.040896399999999,-8.5121722,-1.0198916
1765061357410,-6.1978028,-8.1199062,-0.980665
1765061357416,-6.1978028,-8.1199062,-0.980665
1765061357422,-6.5116156,-7.5315072,-1.0591182
1765061357428,-6.5116156,-7.5315072,-1.0591182
1765061357434,-6.5508422,-7.178467799999999,-0.980665
1765061357440,-6.7469752000000005,-7.178467799999999,-0.9414384
1765061357446,-6.7469752000000005,-7.178467799999999,-0.9414384
1765061357452,-6.943108199999999,-7.178467799999999,-0.980665
1765061357458,-6.943108199999999,-7.178467799999999,-0.980665
1765061357464,-7.296147599999999,-6.903881599999999,-1.0983448
1765061357470,-7.256920999999999,-6.943108199999999,-1.0198916
1765061357476,-7.256920999999999,-6.943108199999999,-1.0198916
1765061357482,-7.1000146,-7.5315072,-1.0591182
1765061357488,-7.1000146,-7.5315072,-1.0591182
1765061357529,-6.0801229999999995,-8.394492399999999,-0.784532
1765061357535,-6.3154826,-8.041453,-0.7453053999999999
1765061357541,-6.5900688,-7.8060934,-0.8629851999999999
1765061357547,-6.5900688,-7.8060934,-0.8629851999999999
1765061357553,-6.7077486,-7.84532,-0.8237586
1765061357559,-6.7077486,-7.84532,-0.8237586
1765061357565,-6.276256,-7.84532,-0.7453053999999999
1765061357571,-5.923216599999999,-7.5707338,-0.8629851999999999
1765061357577,-5.923216599999999,-7.5707338,-0.8629851999999999
1765061357583,-6.4331624,-7.4922806,-0.980665
1765061357589,-6.4331624,-7.4922806,-0.980665
1765061357595,-6.6292954,-7.3353741999999995,-1.0198916
1765061357601,-6.6292954,-7.3353741999999995,-1.0198916
1765061357607,-6.8254284,-7.1000146,-1.0591182
1765061357613,-6.903881599999999,-7.060788,-1.0591182
1765061357619,-6.903881599999999,-7.060788,-1.0591182
1765061357625,-6.786201800000001,-6.982334799999999,-1.1375714
1765061357631,-6.786201800000001,-6.982334799999999,-1.1375714
1765061357637,-7.217694399999999,-7.139241199999999,-1.0591182
1765061357643,-6.982334799999999,-7.453054,-0.980665
1765061357684,-6.6292954,-7.3353741999999995,-0.9022117999999999
1765061357690,-6.6292954,-7.3353741999999995,-0.9022117999999999
1765061357696,-6.5116156,-7.8845466,-0.784532
1765061357702,-6.5116156,-7.8845466,-0.784532
1765061357708,-6.472389,-8.041453,-0.8237586
1765061357714,-6.5116156,-7.7668668,-0.8629851999999999
1765061357720,-6.5116156,-7.7668668,-0.8629851999999999
1765061357726,-6.3939357999999995,-7.5707338,-0.784532
1765061357732,-6.3939357999999995,-7.5707338,-0.784532
1765061357738,-6.276256,-7.5707338,-0.784532
1765061357744,-6.5116156,-7.4922806,-0.8237586
1765061357750,-6.5116156,-7.4922806,-0.8237586
1765061357756,-6.5900688,-7.256920999999999,-0.9022117999999999
1765061357762,-6.5900688,-7.256920999999999,-0.9022117999999999
1765061357768,-6.3939357999999995,-7.3746008,-1.0198916
1765061357774,-6.1978028,-7.8060934,-0.9022117999999999
1765061357780,-6.1978028,-7.8060934,-0.9022117999999999
1765061357786,-5.8447634,-8.1199062,-0.8629851999999999
1765061357792,-5.8447634,-8.1199062,-0.8629851999999999
1765061357798,-5.530950600000001,-8.1591328,-0.980665
1765061357839,-5.687856999999999,-8.1591328,-1.2160246
1765061357845,-5.687856999999999,-8.1591328,-1.2160246
1765061357851,-5.4917240000000005,-8.2768126,-1.0198916
1765061357857,-5.3740442,-8.1983594,-1.1767979999999998
1765061357863,-5.3740442,-8.1983594,-1.1767979999999998
1765061357869,-5.88399,-8.1983594,-1.0198916
1765061357875,-5.88399,-8.1983594,-1.0198916
1765061357881,-5.923216599999999,-7.9629998,-0.9414384
1765061357887,-5.923216599999999,-7.84532,-0.980665
1765061357893,-5.923216599999999,-7.84532,-0.980665
1765061357899,-5.923216599999999,-7.6884136,-0.8629851999999999
1765061357905,-5.923216599999999,-7.6884136,-0.8629851999999999
1765061357911,-5.88399,-7.4138274,-1.0198916
1765061357917,-5.687856999999999,-7.4922806,-0.8237586
1765061357923,-5.687856999999999,-7.4922806,-0.8237586
1765061357929,-5.530950600000001,-7.9237732,-0.6276256
1765061357935,-5.530950600000001,-7.9237732,-0.6276256
1765061357941,-5.4917240000000005,-7.8845466,-0.6668522
1765061357947,-5.5701772,-7.6884136,-0.7060788
