timestamp_ms,ax,ay,az
1765067651080,-3.138128,-10.8657682,0.3138128
1765067651196,-2.1966896,-8.747531799999999,-0.4707192
1765067651202,-2.2359162,-9.924329799999999,-0.0784532
1765067651208,-2.2359162,-9.924329799999999,-0.0784532
1765067651214,-2.2359162,-9.8851032,-0.1569064
1765067651220,-2.2359162,-9.8851032,-0.1569064
1765067651226,-2.0790097999999997,-9.5320638,-0.196133
1765067651232,-2.3928225999999997,-9.571290399999999,-0.3530394
1765067651238,-2.3928225999999997,-9.571290399999999,-0.3530394
1765067651244,-2.3143694,-10.002782999999999,-0.392266
1765067651250,-2.3143694,-10.002782999999999,-0.392266
1765067651256,-2.2359162,-10.3165958,-0.3530394
1765067651262,-1.7259703999999998,-9.9635564,-0.4707192
1765067651268,-1.7259703999999998,-9.9635564,-0.4707192
1765067651274,-1.2160246,-9.571290399999999,-0.8237586
1765067651280,-1.2160246,-9.571290399999999,-0.8237586
1765067651286,-0.7453053999999999,-9.7674234,-0.8237586
1765067651292,-1.1375714,-9.610517,-0.9022117999999999
1765067651298,-1.1375714,-9.610517,-0.9022117999999999
1765067651304,-1.4513842,-9.7281968,-0.7453053999999999
1765067651310,-1.4513842,-9.7281968,-0.7453053999999999
1765067651351,-1.6475172,-10.1204628,-0.7453053999999999
1765067651357,-1.4906107999999998,-10.0420096,-0.6668522
1765067651363,-1.2160246,-9.2574776,-0.8237586
1765067651369,-1.2160246,-9.2574776,-0.8237586
1765067651375,-1.2552512,-8.8652116,-0.9022117999999999
1765067651381,-1.2552512,-8.8652116,-0.9022117999999999
1765067651387,-0.980665,-9.2574776,-0.8629851999999999
1765067651393,-0.980665,-9.2574776,-0.8629851999999999
1765067651399,-0.7453053999999999,-9.492837199999999,-0.9414384
1765067651405,-0.1569064,-9.3751574,-1.0983448
1765067651411,-0.1569064,-9.3751574,-1.0983448
1765067651417,0.0392266,-9.3751574,-1.0983448
1765067651423,0.0392266,-9.3751574,-1.0983448
1765067651429,-0.3530394,-9.2967042,-1.3337044
1765067651435,-0.6276256,-9.5320638,-1.5298374
1765067651441,-0.6276256,-9.5320638,-1.5298374
1765067651447,-0.5491724,-9.9635564,-1.5298374
1765067651453,-0.5491724,-9.9635564,-1.5298374
1765067651459,-0.784532,-9.80665,-1.7259703999999998
1765067651465,-1.4906107999999998,-9.3359308,-1.8436502
1765067651506,0.43149259999999995,-9.3359308,-2.0790097999999997
1765067651512,0.43149259999999995,-9.3359308,-2.0790097999999997
1765067651518,0.4707192,-8.825985,-1.96133
1765067651524,0.4707192,-8.825985,-1.96133
1765067651530,-0.0784532,-8.5121722,-1.8828768
1765067651536,-0.4707192,-8.747531799999999,-2.0397832
1765067651542,-0.4707192,-8.747531799999999,-2.0397832
1765067651548,-0.9022117999999999,-9.492837199999999,-1.96133
1765067651554,-0.9022117999999999,-9.492837199999999,-1.96133
1765067651560,-0.6668522,-9.8851032,-2.157463
1765067651566,-0.6668522,-9.8851032,-2.157463
1765067651572,0.0,-9.218251,-2.3535959999999996
1765067651578,0.2745862,-9.7281968,-2.4712758
1765067651584,0.2745862,-9.7281968,-2.4712758
1765067651590,0.4707192,-9.7674234,-2.4320492
1765067651596,0.4707192,-9.7674234,-2.4320492
1765067651602,0.0392266,-9.4536106,-2.4712758
1765067651608,-0.392266,-8.825985,-2.5889556
1765067651614,-0.392266,-8.825985,-2.5889556
1765067651620,-0.6668522,-8.9436648,-2.5889556
1765067651660,0.5883989999999999,-9.1397978,-2.7458620000000002
1765067651666,0.5883989999999999,-9.1397978,-2.7458620000000002
1765067651672,0.0784532,-8.9044382,-2.6674088
1765067651678,-0.3530394,-8.9436648,-2.6281822
1765067651684,-0.3530394,-8.9436648,-2.6281822
1765067651690,-0.6668522,-9.2574776,-2.6674088
1765067651696,-0.6668522,-9.2574776,-2.6674088
1765067651702,-0.5883989999999999,-9.7674234,-2.7458620000000002
1765067651708,-0.5883989999999999,-10.1204628,-2.8635417999999997
1765067651714,-0.5883989999999999,-10.1204628,-2.8635417999999997
1765067651720,-0.5491724,-9.9635564,-3.0204481999999997
1765067651726,-0.5491724,-9.9635564,-3.0204481999999997
1765067651732,-0.392266,-9.845876599999999,-3.138128
1765067651738,-0.392266,-9.845876599999999,-3.138128
1765067651744,0.1569064,-9.8851032,-3.0204481999999997
1765067651750,0.0784532,-9.4536106,-2.9027684
1765067651756,0.0784532,-9.4536106,-2.9027684
1765067651762,0.1569064,-9.1397978,-2.9812215999999996
1765067651768,0.1569064,-9.1397978,-2.9812215999999996
1765067651774,0.1569064,-8.7867584,-2.941995
1765067651815,-0.0784532,-9.492837199999999,-3.0989014
1765067651821,0.0392266,-9.0613446,-3.1773545999999997
1765067651827,0.0392266,-9.0613446,-3.1773545999999997
1765067651833,0.0,-8.9436648,-3.0989014
1765067651839,0.0,-8.9436648,-3.0989014
1765067651845,-0.0392266,-8.8652116,-3.2165812
1765067651851,0.0784532,-9.218251,-3.2558078
1765067651857,0.0784532,-9.218251,-3.2558078
1765067651863,-0.0392266,-9.571290399999999,-3.334261
1765067651869,-0.0392266,-9.571290399999999,-3.334261
1765067651875,-0.3530394,-9.649743599999999,-3.2950344
1765067651881,-0.2353596,-9.5320638,-3.4127142
1765067651887,-0.2353596,-9.5320638,-3.4127142
1765067651893,-0.392266,-9.571290399999999,-3.4519407999999996
1765067651899,-0.392266,-9.571290399999999,-3.4519407999999996
1765067651905,-0.7060788,-9.924329799999999,-3.4519407999999996
1765067651911,-0.7060788,-9.924329799999999,-3.4519407999999996
1765067651917,-0.9022117999999999,-9.492837199999999,-3.2165812
1765067651923,-0.7453053999999999,-8.9044382,-3.1773545999999997
1765067651929,-0.7453053999999999,-8.9044382,-3.1773545999999997
1765067651969,1.4513842,-9.022118,-3.3734876000000003
1765067651975,1.0198916,-8.669078599999999,-3.4127142
1765067651981,1.0198916,-8.669078599999999,-3.4127142
1765067651987,0.2745862,-8.433719,-3.2558078
1765067651993,0.0392266,-8.747531799999999,-3.2950344
1765067651999,0.0392266,-8.747531799999999,-3.2950344
1765067652005,-0.2745862,-9.218251,-3.138128
1765067652011,-0.2745862,-9.218251,-3.138128
1765067652017,-0.7060788,-8.7867584,-3.334261
1765067652023,-0.6668522,-9.022118,-3.4127142
1765067652029,-0.6668522,-9.022118,-3.4127142
1765067652035,-0.5099458,-9.2967042,-3.4519407999999996
1765067652041,-0.5099458,-9.2967042,-3.4519407999999996
1765067652047,-0.1176798,-8.9044382,-3.6873004
1765067652053,0.1176798,-9.0613446,-3.726527
1765067652059,0.1176798,-9.0613446,-3.726527
1765067652065,0.6668522,-9.3751574,-3.7657536
1765067652071,0.6668522,-9.3751574,-3.7657536
1765067652077,0.8629851999999999,-9.571290399999999,-3.726527
1765067652083,0.8629851999999999,-9.571290399999999,-3.726527
1765067652124,0.9414384,-9.0613446,-3.8049801999999997
1765067652130,0.3530394,-8.7867584,-3.6873004
1765067652136,0.0392266,-9.1005712,-3.7657536
1765067652142,0.0392266,-9.1005712,-3.7657536
1765067652148,0.0392266,-9.2574776,-3.5696205999999995
1765067652154,0.0392266,-9.2574776,-3.5696205999999995
1765067652160,-0.1176798,-9.1397978,-3.530394
1765067652166,-0.0392266,-8.9436648,-3.4911673999999997
1765067652172,-0.0392266,-8.9436648,-3.4911673999999997
1765067652178,0.196133,-8.7083052,-3.530394
1765067652184,0.196133,-8.7083052,-3.530394
1765067652190,0.6668522,-8.825985,-3.4127142
1765067652196,0.7060788,-9.1397978,-3.334261
1765067652202,0.7060788,-9.1397978,-3.334261
1765067652208,0.4707192,-8.669078599999999,-3.4519407999999996
1765067652214,0.4707192,-8.669078599999999,-3.4519407999999996
1765067652220,0.1569064,-8.3552658,-3.530394
1765067652226,0.196133,-9.3751574,-3.2558078
1765067652232,0.196133,-9.3751574,-3.2558078
1765067652238,0.1569064,-9.649743599999999,-3.2950344
1765067652279,-0.196133,-9.218251,-3.2165812
1765067652285,-0.196133,-9.218251,-3.2165812
1765067652291,-0.1569064,-9.1005712,-3.2558078
1765067652297,-0.392266,-9.218251,-3.138128
1765067652303,-0.392266,-9.218251,-3.138128
1765067652309,-0.6668522,-9.1790244,-3.0204481999999997
1765067652315,-0.6668522,-9.1790244,-3.0204481999999997
1765067652321,-0.7453053999999999,-9.1005712,-2.9812215999999996
1765067652327,-0.7453053999999999,-9.1005712,-2.9812215999999996
1765067652333,-0.5883989999999999,-9.649743599999999,-2.9027684
1765067652339,-0.1569064,-9.8851032,-3.0204481999999997
1765067652345,-0.1569064,-9.8851032,-3.0204481999999997
1765067652351,0.0392266,-10.002782999999999,-3.0596748
1765067652357,0.0392266,-10.002782999999999,-3.0596748
1765067652363,0.1569064,-9.414383999999998,-2.941995
1765067652369,0.0,-8.7867584,-2.941995
1765067652375,0.0,-8.7867584,-2.941995
1765067652381,-0.43149259999999995,-8.4729456,-2.8635417999999997
1765067652387,-0.43149259999999995,-8.4729456,-2.8635417999999997
1765067652393,-0.5883989999999999,-8.590625399999999,-2.7458620000000002
1765067652434,-0.7060788,-9.7281968,-2.6281822
1765067652440,-0.5883989999999999,-9.649743599999999,-2.8635417999999997
1765067652446,-0.5883989999999999,-9.649743599999999,-2.8635417999999997
1765067652452,-0.9414384,-9.2967042,-2.6281822
1765067652458,-0.9414384,-9.2967042,-2.6281822
1765067652464,-1.1375714,-8.8652116,-2.5105024
1765067652470,-0.7060788,-8.590625399999999,-2.4712758
1765067652476,-0.7060788,-8.590625399999999,-2.4712758
1765067652482,-0.0784532,-8.2768126,-2.549729
1765067652488,-0.0784532,-8.2768126,-2.549729
1765067652494,0.0784532,-8.3552658,-2.7066354
1765067652500,-0.0784532,-9.1790244,-2.6674088
1765067652506,-0.0784532,-9.1790244,-2.6674088
1765067652512,-0.3530394,-9.80665,-2.8243152
1765067652518,-0.3530394,-9.80665,-2.8243152
1765067652524,-0.3530394,-10.0812362,-2.9812215999999996
1765067652530,-0.3530394,-10.0812362,-2.9812215999999996
1765067652536,-0.8237586,-10.2381426,-2.9027684
1765067652542,-1.4906107999999998,-10.1204628,-2.8243152
1765067652548,-1.4906107999999998,-10.1204628,-2.8243152
1765067652588,-0.8237586,-8.9044382,-2.9027684
1765067652594,-0.6668522,-9.218251,-2.7458620000000002
1765067652600,-0.6668522,-9.218251,-2.7458620000000002
1765067652606,-0.5099458,-9.1005712,-2.7458620000000002
1765067652612,-0.6668522,-9.2574776,-2.8243152
1765067652618,-0.6668522,-9.2574776,-2.8243152
1765067652624,-1.0983448,-9.610517,-2.7066354
1765067652630,-1.0983448,-9.610517,-2.7066354
1765067652636,-1.569064,-9.8851032,-2.549729
1765067652642,-2.1182364,-9.7281968,-2.5105024
1765067652648,-2.1182364,-9.7281968,-2.5105024
1765067652654,-2.3928225999999997,-9.492837199999999,-2.4712758
1765067652660,-2.3928225999999997,-9.492837199999999,-2.4712758
1765067652666,-2.3143694,-9.492837199999999,-2.4712758
1765067652672,-1.9221034,-9.4536106,-2.5889556
1765067652678,-1.9221034,-9.4536106,-2.5889556
1765067652684,-1.3729310000000001,-9.3751574,-2.6674088
1765067652690,-1.3729310000000001,-9.3751574,-2.6674088
1765067652696,-1.2552512,-9.414383999999998,-2.6674088
