timestamp_ms,ax,ay,az
1765068167223,6.472389,-6.5508422,5.7663101999999995
1765068167502,2.7458620000000002,-8.669078599999999,0.3530394
1765068167508,2.549729,-8.669078599999999,-0.0784532
1765068167514,2.4712758,-8.669078599999999,-0.0784532
1765068167520,2.4712758,-8.669078599999999,-0.0784532
1765068167526,2.941995,-8.8652116,-0.1176798
1765068167532,2.941995,-8.8652116,-0.1176798
1765068167538,3.0204481999999997,-8.9828914,0.0392266
1765068167544,2.9812215999999996,-9.1397978,-0.0784532
1765068167550,2.9812215999999996,-9.1397978,-0.0784532
1765068167556,3.0596748,-9.218251,-0.196133
1765068167562,3.0596748,-9.218251,-0.196133
1765068167568,2.7066354,-9.3359308,-0.196133
1765068167574,2.5889556,-9.3359308,-0.2353596
1765068167580,2.5889556,-9.3359308,-0.2353596
1765068167586,2.5105024,-9.1005712,-0.392266
1765068167592,2.5105024,-9.1005712,-0.392266
1765068167598,2.6281822,-9.1397978,-0.3530394
1765068167604,2.6281822,-9.1397978,-0.3530394
1765068167610,2.5889556,-9.1397978,-0.1176798
1765068167616,1.96133,-8.669078599999999,-0.1176798
1765068167657,2.4712758,-9.4536106,-0.7453053999999999
1765068167663,2.4712758,-9.4536106,-0.7453053999999999
1765068167669,2.4712758,-9.4536106,-0.5883989999999999
1765068167675,2.4712758,-9.4536106,-0.5883989999999999
1765068167681,2.2751428,-9.610517,-0.6668522
1765068167687,2.2751428,-9.6889702,-0.784532
1765068167693,2.2751428,-9.6889702,-0.784532
1765068167699,2.2359162,-9.80665,-0.9022117999999999
1765068167705,2.2359162,-9.80665,-0.9022117999999999
1765068167711,2.6281822,-9.924329799999999,-0.9414384
1765068167717,2.9027684,-10.0420096,-0.980665
1765068167723,2.9027684,-10.0420096,-0.980665
1765068167729,2.7850886,-10.1204628,-0.8629851999999999
1765068167735,2.7850886,-10.1204628,-0.8629851999999999
1765068167741,2.2751428,-9.649743599999999,-0.7060788
1765068167747,2.2359162,-9.1005712,-0.5099458
1765068167753,2.2359162,-9.1005712,-0.5099458
1765068167759,2.3535959999999996,-9.1397978,-0.1569064
1765068167765,2.3535959999999996,-9.1397978,-0.1569064
1765068167771,2.1966896,-9.3359308,-0.0392266
1765068167811,2.9812215999999996,-9.1005712,-0.8237586
1765068167817,2.9812215999999996,-9.1005712,-0.8237586
1765068167823,2.9812215999999996,-9.1397978,-0.5491724
1765068167829,2.6281822,-9.1005712,0.1569064
1765068167835,2.6281822,-9.1005712,0.1569064
1765068167841,2.4320492,-9.1790244,0.5099458
1765068167847,2.4320492,-9.1790244,0.5099458
1765068167853,2.2751428,-8.7083052,0.43149259999999995
1765068167859,2.0397832,-8.2768126,0.196133
1765068167865,2.0397832,-8.2768126,0.196133
1765068167871,2.3535959999999996,-8.5121722,0.0392266
1765068167877,2.3535959999999996,-8.5121722,0.0392266
1765068167883,2.6674088,-8.9436648,0.1569064
1765068167889,2.9812215999999996,-9.4536106,0.196133
1765068167895,2.9812215999999996,-9.4536106,0.196133
1765068167901,2.9812215999999996,-9.492837199999999,0.0
1765068167907,2.9812215999999996,-9.492837199999999,0.0
1765068167913,2.4320492,-9.2967042,0.0392266
1765068167919,2.4320492,-9.2967042,0.0392266
1765068167925,2.7066354,-8.8652116,-0.196133
1765068167966,2.3143694,-9.492837199999999,0.3138128
1765068167972,2.7458620000000002,-9.7281968,0.3138128
1765068167978,2.7458620000000002,-9.7281968,0.3138128
1765068167984,3.138128,-10.002782999999999,0.3530394
1765068167990,3.138128,-10.002782999999999,0.3530394
1765068167996,3.2165812,-10.3558224,0.196133
1765068168002,3.0989014,-9.924329799999999,0.0
1765068168008,3.0989014,-9.924329799999999,0.0
1765068168014,2.7458620000000002,-9.1005712,-0.0784532
1765068168020,2.7458620000000002,-9.1005712,-0.0784532
1765068168026,2.4712758,-8.2768126,-0.1569064
1765068168032,2.3535959999999996,-8.041453,-0.2353596
1765068168038,2.3535959999999996,-8.041453,-0.2353596
1765068168044,2.549729,-8.1591328,-0.1569064
1765068168050,2.549729,-8.1591328,-0.1569064
1765068168056,2.5105024,-8.669078599999999,0.1176798
1765068168062,2.549729,-9.414383999999998,0.3138128
1765068168068,2.549729,-9.414383999999998,0.3138128
1765068168074,3.1773545999999997,-9.6889702,0.0784532
1765068168080,3.1773545999999997,-9.6889702,0.0784532
1765068168120,2.941995,-9.1397978,0.0
1765068168126,2.7458620000000002,-8.8652116,0.0
1765068168132,2.7458620000000002,-8.8652116,0.0
1765068168138,2.549729,-8.747531799999999,-0.0784532
1765068168144,2.7066354,-8.7867584,-0.196133
1765068168150,2.7066354,-8.7867584,-0.196133
1765068168156,2.7458620000000002,-8.8652116,-0.1569064
1765068168162,2.7458620000000002,-8.8652116,-0.1569064
1765068168168,2.941995,-8.9044382,-0.5491724
1765068168174,3.1773545999999997,-8.9044382,-0.3530394
1765068168180,3.1773545999999997,-8.9044382,-0.3530394
1765068168186,3.0204481999999997,-8.9436648,0.0
1765068168192,3.0204481999999997,-8.9436648,0.0
1765068168198,2.549729,-9.1790244,0.392266
1765068168204,2.1966896,-9.5320638,0.5491724
1765068168210,2.1966896,-9.5320638,0.5491724
1765068168216,2.2359162,-9.3359308,0.392266
1765068168222,2.2359162,-9.3359308,0.392266
1765068168228,2.4320492,-8.9828914,0.1176798
1765068168234,2.4320492,-8.9828914,0.1176798
1765068168275,2.6674088,-8.7867584,-0.5491724
1765068168281,2.5105024,-8.9044382,-0.43149259999999995
1765068168287,2.2359162,-8.5513988,-0.43149259999999995
1765068168293,2.2359162,-8.5513988,-0.43149259999999995
1765068168299,2.3535959999999996,-8.4729456,-0.196133
1765068168305,2.3535959999999996,-8.4729456,-0.196133
1765068168311,2.3928225999999997,-8.7867584,0.0784532
1765068168317,2.1966896,-9.4536106,0.1176798
1765068168323,2.1966896,-9.4536106,0.1176798
1765068168329,2.3143694,-9.924329799999999,0.0
1765068168335,2.3143694,-9.924329799999999,0.0
1765068168341,3.0596748,-10.0420096,0.0784532
1765068168347,3.0989014,-9.2574776,-0.8629851999999999
1765068168353,3.0989014,-9.2574776,-0.8629851999999999
1765068168359,2.4712758,-9.492837199999999,-0.6276256
1765068168365,2.4712758,-9.492837199999999,-0.6276256
1765068168371,1.8436502,-10.395049,-0.5491724
1765068168377,2.3928225999999997,-9.6889702,-0.5491724
1765068168383,2.3928225999999997,-9.6889702,-0.5491724
1765068168389,3.530394,-8.7083052,-0.5883989999999999
1765068168429,1.8436502,-9.7281968,0.0784532
1765068168435,1.8436502,-9.7281968,0.0784532
1765068168441,1.765197,-9.3359308,-0.2745862
1765068168447,1.765197,-9.3359308,-0.2745862
1765068168453,2.0397832,-8.9044382,-0.4707192
1765068168459,2.2359162,-8.8652116,-0.392266
1765068168465,2.2359162,-8.8652116,-0.392266
1765068168471,2.3535959999999996,-8.9436648,-0.43149259999999995
1765068168477,2.3535959999999996,-8.9436648,-0.43149259999999995
1765068168483,2.0005566,-9.3359308,-0.392266
1765068168489,2.157463,-9.6889702,-0.3138128
1765068168495,2.157463,-9.6889702,-0.3138128
1765068168501,2.3928225999999997,-9.610517,-0.392266
1765068168507,2.3928225999999997,-9.610517,-0.392266
1765068168513,2.5105024,-9.80665,-0.3530394
1765068168519,2.3928225999999997,-10.002782999999999,-0.3530394
1765068168525,2.3928225999999997,-10.002782999999999,-0.3530394
1765068168531,2.1966896,-10.1596894,-0.3530394
1765068168537,2.1966896,-10.1596894,-0.3530394
1765068168543,2.1966896,-10.0420096,-0.3530394
1765068168584,1.765197,-8.8652116,-0.6276256
1765068168590,1.6867438000000001,-8.825985,-0.392266
1765068168596,1.6867438000000001,-8.825985,-0.392266
1765068168602,1.96133,-9.0613446,-0.3530394
1765068168608,1.96133,-9.0613446,-0.3530394
1765068168614,1.96133,-9.3751574,-0.2353596
1765068168620,2.0790097999999997,-9.6889702,-0.196133
1765068168626,2.0790097999999997,-9.6889702,-0.196133
1765068168632,2.2751428,-9.9635564,-0.43149259999999995
1765068168638,2.2751428,-9.9635564,-0.43149259999999995
1765068168644,2.3535959999999996,-9.845876599999999,-0.43149259999999995
1765068168650,2.3535959999999996,-9.845876599999999,-0.43149259999999995
1765068168656,2.2359162,-9.3751574,-0.5491724
1765068168662,2.1182364,-9.2967042,-0.5491724
1765068168668,2.1182364,-9.2967042,-0.5491724
1765068168674,1.4513842,-9.218251,-0.3530394
1765068168680,1.4513842,-9.218251,-0.3530394
1765068168686,1.1767979999999998,-9.1005712,-0.3530394
1765068168692,1.6475172,-9.1790244,-0.392266
1765068168698,1.6475172,-9.1790244,-0.392266
1765068168739,1.96133,-9.9635564,-0.2745862
1765068168745,1.7259703999999998,-9.492837199999999,-0.2745862
1765068168751,1.7259703999999998,-9.492837199999999,-0.2745862
1765068168757,1.6867438000000001,-8.7083052,-0.3530394
1765068168763,1.4906107999999998,-8.0806796,-0.6668522
1765068168769,1.4906107999999998,-8.0806796,-0.6668522
1765068168775,1.0198916,-8.1983594,-0.8237586
1765068168781,1.0198916,-8.1983594,-0.8237586
1765068168787,0.43149259999999995,-8.590625399999999,-0.5491724
1765068168793,0.43149259999999995,-8.590625399999999,-0.5491724
1765068168799,0.8237586,-8.747531799999999,-1.1767979999999998
1765068168805,1.2160246,-9.492837199999999,-1.2160246
1765068168811,1.2160246,-9.492837199999999,-1.2160246
1765068168817,1.5298374,-10.3165958,-1.1767979999999998
1765068168823,1.5298374,-10.3165958,-1.1767979999999998
1765068168829,2.1182364,-10.198916,-0.9414384
1765068168835,2.0005566,-9.4536106,-1.1375714
1765068168841,2.0005566,-9.4536106,-1.1375714
1765068168847,1.8044235999999998,-8.7867584,-1.0591182
1765068168853,1.8044235999999998,-8.7867584,-1.0591182
1765068168893,1.4906107999999998,-10.2381426,-1.3729310000000001
1765068168899,1.765197,-11.0226746,-1.2160246
1765068168905,2.8243152,-10.0812362,-1.765197
1765068168911,2.8243152,-10.0812362,-1.765197
1765068168917,2.8635417999999997,-8.7083052,-2.157463
1765068168924,2.8635417999999997,-8.7083052,-2.157463
1765068168930,2.1182364,-9.3359308,-1.8436502
1765068168935,0.7060788,-8.8652116,-1.4513842
1765068168941,0.7060788,-8.8652116,-1.4513842
1765068168947,0.3530394,-8.9044382,-1.1375714
1765068168953,0.3530394,-8.9044382,-1.1375714
1765068168959,0.6668522,-9.845876599999999,-0.7453053999999999
1765068168965,0.6668522,-9.845876599999999,-0.7453053999999999
1765068168971,0.6668522,-10.1596894,-0.9022117999999999
1765068168977,0.4707192,-10.2381426,-1.1767979999999998
1765068168983,0.4707192,-10.2381426,-1.1767979999999998
1765068168989,1.0983448,-10.0812362,-1.2552512
1765068168995,1.0983448,-10.0812362,-1.2552512
1765068169001,1.7259703999999998,-9.7674234,-1.2944778
