timestamp_ms,ax,ay,az
1765068650445,5.88399,-6.668522,-1.4906107999999998
1765068650486,6.943108199999999,-8.629852,-1.7259703999999998
1765068650492,6.6292954,-8.2768126,-1.8044235999999998
1765068650498,6.6292954,-8.2768126,-1.8044235999999998
1765068650504,6.7469752000000005,-7.3353741999999995,-2.0005566
1765068650510,6.7469752000000005,-7.3353741999999995,-2.0005566
1765068650516,7.256920999999999,-6.001669799999999,-2.0397832
1765068650522,7.256920999999999,-6.001669799999999,-2.0397832
1765068650528,7.3353741999999995,-5.923216599999999,-1.9221034
1765068650534,6.5900688,-7.060788,-1.3337044
1765068650540,6.5900688,-7.060788,-1.3337044
1765068650546,6.1585762,-8.5513988,-0.8237586
1765068650552,6.1585762,-8.5513988,-0.8237586
1765068650558,6.040896399999999,-7.9629998,-0.8237586
1765068650564,6.4331624,-6.4331624,-0.784532
1765068650570,6.4331624,-6.4331624,-0.784532
1765068650576,6.3939357999999995,-6.1193496,-0.9022117999999999
1765068650582,6.3939357999999995,-6.1193496,-0.9022117999999999
1765068650588,6.7469752000000005,-7.139241199999999,-0.6276256
1765068650594,6.903881599999999,-7.5707338,-0.6276256
1765068650600,6.903881599999999,-7.5707338,-0.6276256
1765068650640,5.88399,-5.8055368,-1.4513842
1765068650646,5.88399,-5.5701772,-1.6082906
1765068650652,5.88399,-5.5701772,-1.6082906
1765068650658,5.8447634,-6.040896399999999,-1.8828768
1765068650664,6.2370294,-7.0215613999999995,-2.0790097999999997
1765068650670,6.2370294,-7.0215613999999995,-2.0790097999999997
1765068650676,7.4922806,-6.786201800000001,-2.3535959999999996
1765068650682,7.4922806,-6.786201800000001,-2.3535959999999996
1765068650688,9.414383999999998,-6.1193496,-2.6674088
1765068650694,9.414383999999998,-6.1193496,-2.6674088
1765068650700,10.277369199999999,-6.5508422,-2.7458620000000002
1765068650706,11.3364874,-7.7276402,-2.9027684
1765068650712,11.3364874,-7.7276402,-2.9027684
1765068650718,12.0425662,-7.7276402,-3.0204481999999997
1765068650724,12.0425662,-7.7276402,-3.0204481999999997
1765068650730,11.807206599999999,-7.609960399999999,-3.334261
1765068650736,10.7480884,-7.453054,-3.0596748
1765068650742,10.7480884,-7.453054,-3.0596748
1765068650748,9.414383999999998,-6.7077486,-2.8635417999999997
1765068650754,9.414383999999998,-6.7077486,-2.8635417999999997
1765068650795,9.3359308,-3.0989014,-2.7850886
1765068650801,10.3165958,-2.4712758,-2.8243152
1765068650807,10.0420096,-2.9812215999999996,-2.549729
1765068650813,10.0420096,-2.9812215999999996,-2.549729
1765068650819,10.5127288,-3.6480737999999997,-2.3143694
1765068650825,10.5127288,-3.6480737999999997,-2.3143694
1765068650831,11.2580342,-3.4519407999999996,-2.4320492
1765068650837,11.2580342,-3.4519407999999996,-2.4320492
1765068650843,11.571846999999998,-3.0989014,-2.3928225999999997
1765068650849,11.807206599999999,-2.7066354,-2.6281822
1765068650855,11.807206599999999,-2.7066354,-2.6281822
1765068650861,11.2188076,-2.1182364,-2.4712758
1765068650867,11.2188076,-2.1182364,-2.4712758
1765068650873,11.1011278,-1.6475172,-2.7458620000000002
1765068650879,10.395049,-0.2745862,-2.549729
1765068650885,10.395049,-0.2745862,-2.549729
1765068650891,9.8851032,-0.5883989999999999,-2.3535959999999996
1765068650897,9.8851032,-0.5883989999999999,-2.3535959999999996
1765068650903,9.6889702,-1.0198916,-1.8828768
1765068650909,10.2381426,-0.0392266,-1.8436502
1765068650949,12.3956056,-1.3337044,-1.3729310000000001
1765068650955,12.3956056,-1.3337044,-1.3729310000000001
1765068650961,12.552512,-1.4121576,-1.2160246
1765068650967,12.552512,-1.4121576,-1.2160246
1765068650973,13.0624578,-1.5298374,-1.4121576
1765068650979,12.9055514,-1.3337044,-1.6475172
1765068650985,12.9055514,-1.3337044,-1.6475172
1765068650991,12.6309652,-1.2160246,-1.6082906
1765068650997,12.6309652,-1.2160246,-1.6082906
1765068651003,11.885659799999999,-1.4121576,-1.4513842
1765068651009,11.885659799999999,-1.4121576,-1.4513842
1765068651015,11.493393799999998,-1.765197,-1.4513842
1765068651021,10.9049948,-2.1182364,-1.2552512
1765068651027,10.9049948,-2.1182364,-1.2552512
1765068651033,10.277369199999999,-1.8436502,-1.1767979999999998
1765068651039,10.277369199999999,-1.8436502,-1.1767979999999998
1765068651045,10.6304086,-1.4121576,-1.3337044
1765068651051,10.5519554,-1.4121576,-1.0983448
1765068651057,10.5519554,-1.4121576,-1.0983448
1765068651063,10.395049,-1.2552512,-0.9414384
1765068651103,9.7674234,-1.0198916,-0.9022117999999999
1765068651109,9.7674234,-1.0198916,-0.9022117999999999
1765068651115,10.198916,-1.1375714,-0.9414384
1765068651121,11.1011278,-1.4906107999999998,-1.0591182
1765068651127,11.1011278,-1.4906107999999998,-1.0591182
1765068651133,11.375713999999999,-1.2944778,-1.2552512
1765068651139,11.375713999999999,-1.2944778,-1.2552512
1765068651145,10.5519554,-2.1966896,-1.0983448
1765068651151,10.3558224,-2.6674088,-0.7453053999999999
1765068651157,10.3558224,-2.6674088,-0.7453053999999999
1765068651163,11.0226746,-1.4513842,-0.980665
1765068651169,11.0226746,-1.4513842,-0.980665
1765068651175,11.179581,-0.5491724,-1.0198916
1765068651181,11.179581,-0.5491724,-1.0198916
1765068651187,10.591182,-1.3337044,-0.7453053999999999
1765068651193,10.9442214,-2.0005566,-0.392266
1765068651199,10.9442214,-2.0005566,-0.392266
1765068651205,10.8265416,-1.0198916,-0.3138128
1765068651211,10.8265416,-1.0198916,-0.3138128
1765068651217,10.7088618,-0.43149259999999995,-0.3530394
1765068651258,8.7867584,0.5883989999999999,0.2353596
1765068651264,8.1199062,0.9414384,0.5491724
1765068651270,8.1199062,0.9414384,0.5491724
1765068651276,7.6884136,1.1767979999999998,0.6668522
1765068651282,7.6884136,1.1767979999999998,0.6668522
1765068651288,7.3353741999999995,1.2944778,0.8237586
1765068651294,6.5116156,1.6082906,1.0591182
1765068651300,6.5116156,1.6082906,1.0591182
1765068651306,6.4331624,1.7259703999999998,1.2552512
1765068651312,6.4331624,1.7259703999999998,1.2552512
1765068651318,5.8055368,2.1966896,1.4906107999999998
1765068651324,5.8055368,2.1966896,1.4906107999999998
1765068651330,6.5116156,1.569064,1.7259703999999998
1765068651336,6.943108199999999,1.6082906,1.6082906
1765068651342,6.943108199999999,1.6082906,1.6082906
1765068651348,6.7077486,1.4906107999999998,1.6867438000000001
1765068651354,6.7077486,1.4906107999999998,1.6867438000000001
1765068651360,6.5116156,0.6276256,1.6082906
1765068651366,7.0215613999999995,0.392266,1.2944778
1765068651372,7.0215613999999995,0.392266,1.2944778
1765068651412,4.158019599999999,-1.2944778,1.3337044
1765068651418,2.7850886,-2.157463,1.8436502
1765068651424,2.7850886,-2.157463,1.8436502
1765068651430,2.3143694,-1.3337044,1.6475172
1765068651436,2.9027684,0.0392266,1.3729310000000001
1765068651442,2.9027684,0.0392266,1.3729310000000001
1765068651448,3.334261,0.4707192,1.2552512
1765068651454,3.334261,0.4707192,1.2552512
1765068651460,3.334261,-0.3530394,1.4121576
1765068651466,3.1773545999999997,-1.2944778,1.6867438000000001
1765068651472,3.1773545999999997,-1.2944778,1.6867438000000001
1765068651478,3.4519407999999996,-2.3928225999999997,1.6867438000000001
1765068651484,3.4519407999999996,-2.3928225999999997,1.6867438000000001
1765068651490,3.8049801999999997,-2.6281822,1.3337044
1765068651496,3.8049801999999997,-2.6281822,1.3337044
1765068651502,3.4911673999999997,-1.9221034,0.8237586
1765068651508,2.7066354,-2.157463,0.7453053999999999
1765068651514,2.7066354,-2.157463,0.7453053999999999
1765068651520,1.9221034,-3.6873004,0.8629851999999999
1765068651526,1.9221034,-3.6873004,0.8629851999999999
1765068651567,5.4917240000000005,-5.4917240000000005,-0.1176798
1765068651573,3.7657536,-4.5502856,-0.3138128
1765068651579,2.3928225999999997,-4.3541526,-0.4707192
1765068651585,2.3928225999999997,-4.3541526,-0.4707192
1765068651591,3.3734876000000003,-4.118792999999999,-1.0198916
1765068651597,3.3734876000000003,-4.118792999999999,-1.0198916
1765068651603,4.0795664,-3.334261,-1.7259703999999998
1765068651609,5.1779112,-4.9425516,-2.157463
1765068651615,5.1779112,-4.9425516,-2.157463
1765068651621,4.9817782,-7.296147599999999,-2.5105024
1765068651627,4.9817782,-7.296147599999999,-2.5105024
1765068651633,4.9425516,-7.9629998,-2.3143694
1765068651639,5.6486304,-8.0022264,-2.941995
1765068651645,5.6486304,-8.0022264,-2.941995
1765068651651,6.786201800000001,-7.7276402,-3.1773545999999997
1765068651657,6.786201800000001,-7.7276402,-3.1773545999999997
1765068651663,6.8254284,-6.7077486,-3.530394
1765068651669,7.84532,-6.5116156,-4.0795664
1765068651675,7.84532,-6.5116156,-4.0795664
1765068651681,9.3359308,-6.943108199999999,-4.0011132
1765068651722,10.591182,-8.7083052,-4.5502856
1765068651728,10.591182,-8.7083052,-4.5502856
1765068651734,11.3364874,-7.8845466,-5.099458
1765068651740,11.3364874,-7.8845466,-5.099458
1765068651746,11.76798,-8.3552658,-5.4524974
1765068651752,11.179581,-9.7674234,-5.6486304
1765068651758,11.179581,-9.7674234,-5.6486304
1765068651764,10.6304086,-9.9635564,-5.3348176
1765068651770,10.6304086,-9.9635564,-5.3348176
1765068651776,10.0420096,-9.492837199999999,-5.8055368
1765068651782,9.414383999999998,-8.590625399999999,-5.5701772
1765068651788,9.414383999999998,-8.590625399999999,-5.5701772
1765068651794,8.8652116,-7.8060934,-5.4917240000000005
1765068651800,8.8652116,-7.8060934,-5.4917240000000005
1765068651806,9.4536106,-6.354709199999999,-5.4524974
1765068651812,10.4342756,-5.1779112,-5.3740442
1765068651818,10.4342756,-5.1779112,-5.3740442
1765068651824,11.2580342,-5.3348176,-5.0602314
1765068651830,11.2580342,-5.3348176,-5.0602314
1765068651836,12.277925799999998,-5.7663101999999995,-4.8248717999999995
1765068651876,11.1403544,-6.1585762,-4.511059
1765068651882,11.1403544,-6.1585762,-4.511059
1765068651888,12.0425662,-4.8248717999999995,-4.8640984
1765068651894,13.1801376,-4.0403398,-5.0602314
1765068651900,13.1801376,-4.0403398,-5.0602314
1765068651906,13.1016844,-5.295591,-4.746418599999999
1765068651912,13.1016844,-5.295591,-4.746418599999999
1765068651918,12.8663248,-6.1978028,-4.5895122
1765068651924,12.5132854,-5.5701772,-4.5895122
1765068651930,12.5132854,-5.5701772,-4.5895122
1765068651936,12.081792799999999,-4.4326058,-4.785645199999999
1765068651942,12.081792799999999,-4.4326058,-4.785645199999999
1765068651948,11.414940599999998,-3.2165812,-4.6679654
1765068651954,10.1204628,-2.6281822,-4.3541526
1765068651960,10.1204628,-2.6281822,-4.3541526
1765068651966,10.1596894,-2.3928225999999997,-4.0403398
1765068651972,10.1596894,-2.3928225999999997,-4.0403398
1765068651978,10.198916,-1.2160246,-3.9618866
1765068651984,9.649743599999999,-1.0198916,-3.6873004
