timestamp_ms,ax,ay,az
1765068694132,5.3740442,8.1591328,-0.0392266
1765068694173,5.923216599999999,8.1983594,-0.2353596
1765068694179,5.923216599999999,8.1983594,-0.2353596
1765068694185,5.8055368,8.8652116,-0.3530394
1765068694191,5.8055368,8.8652116,-0.3530394
1765068694197,6.0801229999999995,9.414383999999998,-0.392266
1765068694203,6.0801229999999995,9.414383999999998,-0.392266
1765068694209,6.3154826,10.002782999999999,-0.5883989999999999
1765068694215,6.8254284,10.0420096,-0.784532
1765068694221,6.8254284,10.0420096,-0.784532
1765068694227,7.8060934,9.845876599999999,-0.9022117999999999
1765068694233,7.8060934,9.845876599999999,-0.9022117999999999
1765068694239,8.747531799999999,10.3558224,-0.9414384
1765068694245,9.414383999999998,11.532620399999999,-1.0198916
1765068694251,9.414383999999998,11.532620399999999,-1.0198916
1765068694257,9.7674234,12.5132854,-1.0198916
1765068694263,9.7674234,12.5132854,-1.0198916
1765068694269,9.845876599999999,13.0232312,-1.0983448
1765068694275,9.924329799999999,13.140911000000001,-0.980665
1765068694281,9.924329799999999,13.140911000000001,-0.980665
1765068694287,9.414383999999998,12.748645,-0.9022117999999999
1765068694327,7.6884136,13.2978174,-1.569064
1765068694333,7.6884136,13.2978174,-1.569064
1765068694339,6.5900688,13.768536600000001,-1.4121576
1765068694345,6.276256,13.6508568,-1.1767979999999998
1765068694351,6.276256,13.6508568,-1.1767979999999998
1765068694357,6.276256,12.9055514,-0.9022117999999999
1765068694363,6.276256,12.9055514,-0.9022117999999999
1765068694369,5.727083599999999,11.924886399999998,-0.3138128
1765068694375,5.727083599999999,11.924886399999998,-0.3138128
1765068694381,6.1193496,12.277925799999998,-0.5883989999999999
1765068694387,6.1978028,11.179581,-0.196133
1765068694393,6.1978028,11.179581,-0.196133
1765068694399,4.9425516,10.1204628,0.392266
1765068694405,4.9425516,10.1204628,0.392266
1765068694411,4.5502856,8.8652116,1.0983448
1765068694417,4.0403398,7.9629998,1.569064
1765068694423,4.0403398,7.9629998,1.569064
1765068694429,3.7657536,6.982334799999999,1.9221034
1765068694435,3.7657536,6.982334799999999,1.9221034
1765068694441,2.7066354,6.4331624,2.2359162
1765068694482,3.3734876000000003,6.3154826,2.0790097999999997
1765068694488,3.2165812,6.6292954,1.8436502
1765068694494,3.2165812,6.6292954,1.8436502
1765068694500,4.903325,6.7077486,0.9414384
1765068694506,4.903325,6.7077486,0.9414384
1765068694512,7.1000146,5.2171378,0.9414384
1765068694518,6.276256,5.4132708,1.1767979999999998
1765068694524,6.276256,5.4132708,1.1767979999999998
1765068694530,2.2751428,7.217694399999999,1.4513842
1765068694536,2.2751428,7.217694399999999,1.4513842
1765068694542,1.6867438000000001,7.139241199999999,1.9221034
1765068694548,1.6867438000000001,7.139241199999999,1.9221034
1765068694554,1.96133,6.3154826,2.0397832
1765068694560,1.3729310000000001,5.3740442,2.4320492
1765068694566,1.3729310000000001,5.3740442,2.4320492
1765068694572,1.765197,5.0602314,2.549729
1765068694578,1.765197,5.0602314,2.549729
1765068694584,1.8828768,4.9425516,2.5889556
1765068694590,2.4712758,4.314926,2.549729
1765068694596,2.4712758,4.314926,2.549729
1765068694636,7.7668668,0.784532,2.2751428
1765068694642,7.8060934,1.6475172,2.0005566
1765068694648,7.8060934,1.6475172,2.0005566
1765068694654,7.7276402,2.5889556,2.157463
1765068694660,5.727083599999999,3.4519407999999996,2.4320492
1765068694666,5.727083599999999,3.4519407999999996,2.4320492
1765068694672,6.0801229999999995,3.0989014,2.4712758
1765068694678,6.0801229999999995,3.0989014,2.4712758
1765068694684,5.4917240000000005,3.4127142,2.7066354
1765068694690,5.4917240000000005,3.4127142,2.7066354
1765068694696,4.9425516,3.4127142,2.7066354
1765068694702,4.314926,3.6088471999999996,2.941995
1765068694708,4.314926,3.6088471999999996,2.941995
1765068694714,4.6287388,3.138128,2.8635417999999997
1765068694720,4.6287388,3.138128,2.8635417999999997
1765068694726,5.3740442,1.6082906,2.8635417999999997
1765068694732,6.5116156,1.2944778,2.7066354
1765068694738,6.5116156,1.2944778,2.7066354
1765068694744,7.6491869999999995,0.5883989999999999,2.2359162
1765068694750,7.6491869999999995,0.5883989999999999,2.2359162
1765068694791,4.6287388,0.2745862,2.941995
1765068694797,3.4911673999999997,0.0392266,3.0596748
1765068694803,4.4718324,-1.3729310000000001,3.2558078
1765068694809,4.4718324,-1.3729310000000001,3.2558078
1765068694815,6.6292954,-0.2353596,2.2751428
1765068694821,6.6292954,-0.2353596,2.2751428
1765068694827,8.2768126,1.569064,0.9414384
1765068694833,9.8851032,2.4712758,0.1569064
1765068694839,9.8851032,2.4712758,0.1569064
1765068694844,10.1204628,2.4712758,0.2745862
1765068694851,10.1204628,2.4712758,0.2745862
1765068694856,9.1790244,1.2160246,0.980665
1765068694862,9.1790244,1.2160246,0.980665
1765068694868,9.022118,-0.0392266,1.1767979999999998
1765068694874,9.8851032,0.392266,0.980665
1765068694880,9.8851032,0.392266,0.980665
1765068694886,10.198916,1.96133,0.5883989999999999
1765068694892,10.198916,1.96133,0.5883989999999999
1765068694898,9.7674234,3.2558078,0.3530394
1765068694904,9.0613446,4.0795664,0.2353596
1765068694945,13.0624578,3.6873004,-1.2160246
1765068694951,13.0624578,3.6873004,-1.2160246
1765068694957,12.160245999999999,4.3541526,-1.1375714
1765068694963,12.160245999999999,4.3541526,-1.1375714
1765068694969,11.2580342,5.0210048,-0.6668522
1765068694975,9.5320638,6.3939357999999995,-0.3530394
1765068694981,9.5320638,6.3939357999999995,-0.3530394
1765068694987,8.590625399999999,7.139241199999999,-0.0392266
1765068694993,8.590625399999999,7.139241199999999,-0.0392266
1765068694999,8.747531799999999,7.5707338,-0.0392266
1765068695005,8.747531799999999,7.5707338,-0.0392266
1765068695011,9.924329799999999,6.6292954,-0.43149259999999995
1765068695017,11.3364874,6.0801229999999995,-0.784532
1765068695023,11.3364874,6.0801229999999995,-0.784532
1765068695029,12.081792799999999,5.6486304,-1.0198916
1765068695035,12.081792799999999,5.6486304,-1.0198916
1765068695041,12.5132854,5.3348176,-1.0983448
1765068695047,12.0425662,5.687856999999999,-0.9022117999999999
1765068695053,12.0425662,5.687856999999999,-0.9022117999999999
1765068695059,10.6696352,5.530950600000001,-0.3530394
1765068695099,9.5320638,6.7077486,-0.3138128
1765068695105,9.5320638,6.7077486,-0.3138128
1765068695111,9.9635564,6.5116156,-0.43149259999999995
1765068695117,10.4342756,6.354709199999999,-0.6668522
1765068695123,10.4342756,6.354709199999999,-0.6668522
1765068695129,10.5127288,6.5116156,-0.43149259999999995
1765068695135,10.5127288,6.5116156,-0.43149259999999995
1765068695141,9.610517,7.453054,-0.5883989999999999
1765068695147,8.8652116,7.84532,-0.5883989999999999
1765068695153,8.8652116,7.84532,-0.5883989999999999
1765068695159,8.825985,8.316039199999999,-0.6276256
1765068695165,8.825985,8.316039199999999,-0.6276256
1765068695171,8.5513988,8.5513988,-0.7060788
1765068695177,8.5513988,8.5513988,-0.7060788
1765068695183,8.7867584,8.590625399999999,-0.9414384
1765068695189,9.492837199999999,7.7276402,-0.980665
1765068695195,9.492837199999999,7.7276402,-0.980665
1765068695201,9.4536106,7.178467799999999,-0.9022117999999999
1765068695207,9.4536106,7.178467799999999,-0.9022117999999999
1765068695213,9.3359308,7.4138274,-0.7060788
1765068695254,7.3746008,7.5707338,0.1569064
1765068695260,7.5707338,7.256920999999999,0.2745862
1765068695266,7.5707338,7.256920999999999,0.2745862
1765068695272,7.3353741999999995,7.256920999999999,0.4707192
1765068695278,7.3353741999999995,7.256920999999999,0.4707192
1765068695284,7.6884136,6.7077486,0.5491724
1765068695290,8.747531799999999,6.3939357999999995,0.7453053999999999
1765068695296,8.747531799999999,6.3939357999999995,0.7453053999999999
1765068695302,8.9436648,7.1000146,0.5491724
1765068695308,8.9436648,7.1000146,0.5491724
1765068695314,8.7083052,7.256920999999999,0.7060788
1765068695320,8.9828914,7.4922806,0.6276256
1765068695326,8.9828914,7.4922806,0.6276256
1765068695332,8.8652116,7.453054,0.5099458
1765068695338,8.8652116,7.453054,0.5099458
1765068695344,8.9044382,7.1000146,0.5883989999999999
1765068695350,8.3552658,7.3353741999999995,0.4707192
1765068695356,8.3552658,7.3353741999999995,0.4707192
1765068695362,8.0806796,7.6491869999999995,0.196133
1765068695368,8.0806796,7.6491869999999995,0.196133
1765068695409,6.5900688,7.1000146,0.4707192
1765068695415,5.727083599999999,7.4138274,0.6276256
1765068695421,5.727083599999999,7.4138274,0.6276256
1765068695427,4.9817782,7.6884136,0.8237586
1765068695433,4.8248717999999995,7.7276402,1.0198916
1765068695439,4.8248717999999995,7.7276402,1.0198916
1765068695445,4.785645199999999,7.84532,0.980665
1765068695451,4.785645199999999,7.84532,0.980665
1765068695457,4.5895122,7.217694399999999,1.0591182
1765068695463,4.511059,5.6094038,1.3337044
1765068695469,4.511059,5.6094038,1.3337044
1765068695475,4.746418599999999,5.2171378,1.4513842
1765068695481,4.746418599999999,5.2171378,1.4513842
1765068695487,4.8248717999999995,5.687856999999999,1.3337044
1765068695493,5.295591,6.2370294,1.0983448
1765068695499,5.295591,6.2370294,1.0983448
1765068695505,5.88399,6.6292954,0.9414384
1765068695511,5.88399,6.6292954,0.9414384
1765068695517,5.6094038,7.256920999999999,0.8237586
1765068695523,5.2171378,7.4138274,0.9022117999999999
1765068695563,4.746418599999999,6.786201800000001,1.3729310000000001
1765068695569,5.295591,6.5900688,1.3729310000000001
1765068695575,5.4524974,6.276256,1.5298374
1765068695581,5.4524974,6.276256,1.5298374
1765068695587,5.687856999999999,5.8055368,1.765197
1765068695593,5.687856999999999,5.8055368,1.765197
1765068695599,5.6094038,5.962443199999999,1.8436502
1765068695605,6.1978028,6.0801229999999995,1.6867438000000001
1765068695611,6.1978028,6.0801229999999995,1.6867438000000001
1765068695617,7.3746008,5.962443199999999,1.3337044
1765068695623,7.3746008,5.962443199999999,1.3337044
1765068695629,7.8845466,5.687856999999999,1.2944778
1765068695635,7.3353741999999995,5.727083599999999,1.6867438000000001
1765068695641,7.3353741999999995,5.727083599999999,1.6867438000000001
1765068695647,6.903881599999999,6.040896399999999,1.8828768
1765068695653,6.903881599999999,6.040896399999999,1.8828768
1765068695659,6.943108199999999,6.4331624,1.96133
1765068695665,7.453054,6.5508422,1.8436502
1765068695671,7.453054,6.5508422,1.8436502
