timestamp_ms,ax,ay,az
1765064529628,0.784532,-10.0420096,-1.4906107999999998
1765064529669,1.0983448,-9.6889702,-1.5298374
1765064529676,1.0983448,-9.6889702,-1.5298374
1765064529682,1.569064,-9.9635564,-1.6475172
1765064529688,1.569064,-9.9635564,-1.6475172
1765064529694,2.0790097999999997,-10.787315,-1.569064
1765064529700,1.96133,-10.7480884,-1.7259703999999998
1765064529706,1.96133,-10.7480884,-1.7259703999999998
1765064529712,2.0397832,-11.454167199999999,-1.7259703999999998
1765064529718,2.0397832,-11.454167199999999,-1.7259703999999998
1765064529724,1.8436502,-11.3364874,-1.4513842
1765064529730,1.4513842,-10.1596894,-1.9221034
1765064529736,1.4513842,-10.1596894,-1.9221034
1765064529742,1.4513842,-10.4342756,-1.6475172
1765064529748,1.4513842,-10.4342756,-1.6475172
1765064529754,1.1767979999999998,-10.0420096,-1.7259703999999998
1765064529760,0.8629851999999999,-10.591182,-1.4906107999999998
1765064529766,0.8629851999999999,-10.591182,-1.4906107999999998
1765064529772,0.196133,-11.375713999999999,-1.2552512
1765064529778,0.196133,-11.375713999999999,-1.2552512
1765064529784,0.1176798,-11.454167199999999,-1.2944778
1765064529824,0.2353596,-9.571290399999999,-1.4513842
1765064529830,0.2353596,-9.571290399999999,-1.4513842
1765064529836,0.9022117999999999,-9.3751574,-1.4906107999999998
1765064529842,1.2944778,-9.1790244,-1.4513842
1765064529848,1.2944778,-9.1790244,-1.4513842
1765064529854,0.6668522,-9.1790244,-1.2944778
1765064529860,0.6668522,-9.1790244,-1.2944778
1765064529866,0.7453053999999999,-9.7674234,-1.0591182
1765064529872,0.8237586,-9.80665,-1.1767979999999998
1765064529878,0.8237586,-9.80665,-1.1767979999999998
1765064529884,0.6668522,-9.8851032,-1.2552512
1765064529890,0.6668522,-9.8851032,-1.2552512
1765064529896,0.980665,-10.2381426,-1.2552512
1765064529902,1.1767979999999998,-10.3165958,-1.2160246
1765064529908,1.1767979999999998,-10.3165958,-1.2160246
1765064529914,0.7453053999999999,-9.845876599999999,-1.3729310000000001
1765064529920,0.7453053999999999,-9.845876599999999,-1.3729310000000001
1765064529926,0.392266,-10.1204628,-1.2160246
1765064529932,0.2745862,-9.924329799999999,-1.2944778
1765064529938,0.2745862,-9.924329799999999,-1.2944778
1765064529979,0.43149259999999995,-10.0812362,-1.4121576
1765064529985,0.5883989999999999,-9.9635564,-1.3729310000000001
1765064529991,0.5883989999999999,-9.9635564,-1.3729310000000001
1765064529997,0.9022117999999999,-9.9635564,-1.2160246
1765064530003,0.5883989999999999,-9.2967042,-1.4513842
1765064530009,0.5883989999999999,-9.2967042,-1.4513842
1765064530015,1.0198916,-9.492837199999999,-1.2552512
1765064530021,1.0198916,-9.492837199999999,-1.2552512
1765064530027,0.6668522,-9.3359308,-1.3729310000000001
1765064530033,0.6668522,-9.3359308,-1.3729310000000001
1765064530039,0.6276256,-9.1397978,-1.6475172
1765064530045,0.5491724,-10.6304086,-1.1767979999999998
1765064530051,0.5491724,-10.6304086,-1.1767979999999998
1765064530057,-0.5491724,-10.591182,-1.2552512
1765064530063,-0.5491724,-10.591182,-1.2552512
1765064530069,-0.8237586,-10.6696352,-1.4121576
1765064530075,-0.4707192,-11.3364874,-1.2552512
1765064530081,-0.4707192,-11.3364874,-1.2552512
1765064530087,-0.43149259999999995,-11.375713999999999,-0.9414384
1765064530093,-0.43149259999999995,-11.375713999999999,-0.9414384
1765064530134,0.0392266,-9.2574776,-1.0983448
1765064530140,0.4707192,-9.7281968,-1.0983448
1765064530146,0.5099458,-9.2574776,-1.1767979999999998
1765064530152,0.5099458,-9.2574776,-1.1767979999999998
1765064530158,0.6276256,-9.4536106,-1.1767979999999998
1765064530164,0.6276256,-9.4536106,-1.1767979999999998
1765064530170,0.2353596,-9.649743599999999,-1.0983448
1765064530176,0.0,-9.8851032,-0.9022117999999999
1765064530182,0.0,-9.8851032,-0.9022117999999999
1765064530188,0.0784532,-9.9635564,-0.8237586
1765064530194,0.0784532,-9.9635564,-0.8237586
1765064530200,-0.0392266,-9.924329799999999,-0.5883989999999999
1765064530206,-0.0392266,-9.924329799999999,-0.5883989999999999
1765064530212,-0.3138128,-9.2574776,-0.5883989999999999
1765064530218,-0.1176798,-9.0613446,-0.5099458
1765064530224,-0.1176798,-9.0613446,-0.5099458
1765064530230,-0.3138128,-8.3552658,-0.9414384
1765064530236,-0.3138128,-8.3552658,-0.9414384
1765064530242,-0.2745862,-10.277369199999999,-0.5099458
1765064530248,-0.7060788,-10.8265416,-0.2745862
1765064530289,-0.3530394,-9.7674234,-0.2745862
1765064530295,-0.3530394,-9.7674234,-0.2745862
1765064530301,0.0,-9.2574776,-0.5099458
1765064530307,0.0,-9.2574776,-0.5099458
1765064530313,0.6276256,-9.2967042,-0.392266
1765064530319,1.0198916,-9.5320638,-0.3530394
1765064530325,1.0198916,-9.5320638,-0.3530394
1765064530331,0.7060788,-8.9044382,-0.43149259999999995
1765064530337,0.7060788,-8.9044382,-0.43149259999999995
1765064530343,-0.0392266,-9.4536106,-0.1569064
1765064530349,-0.7060788,-10.1596894,0.0392266
1765064530355,-0.7060788,-10.1596894,0.0392266
1765064530361,-1.6475172,-9.7674234,0.0392266
1765064530367,-1.6475172,-9.7674234,0.0392266
1765064530373,-1.8044235999999998,-9.610517,-0.1176798
1765064530379,-0.980665,-10.3558224,0.0392266
1765064530385,-0.980665,-10.3558224,0.0392266
1765064530391,-1.0591182,-9.6889702,0.0392266
1765064530397,-1.0591182,-9.6889702,0.0392266
1765064530403,-0.9414384,-8.747531799999999,-0.0392266
1765064530444,-0.784532,-7.84532,0.392266
1765064530450,-0.3138128,-7.6884136,0.392266
1765064530456,-0.3138128,-7.6884136,0.392266
1765064530462,-0.0784532,-7.6884136,0.3138128
1765064530468,-0.0784532,-7.6884136,0.3138128
1765064530474,-0.1569064,-8.3552658,0.3530394
1765064530480,-0.1569064,-8.3552658,0.3530394
1765064530486,0.0,-9.924329799999999,0.4707192
1765064530492,-0.2353596,-9.924329799999999,0.5099458
1765064530498,-0.2353596,-9.924329799999999,0.5099458
1765064530504,-0.7453053999999999,-9.1790244,0.5883989999999999
1765064530510,-0.7453053999999999,-9.1790244,0.5883989999999999
1765064530516,-0.9022117999999999,-9.3359308,0.8629851999999999
1765064530522,-1.0591182,-8.4729456,0.7453053999999999
1765064530528,-1.0591182,-8.4729456,0.7453053999999999
1765064530534,-0.7453053999999999,-8.3552658,0.784532
1765064530540,-0.7453053999999999,-8.3552658,0.784532
1765064530546,-0.5099458,-8.825985,0.980665
1765064530552,-0.2353596,-8.590625399999999,0.784532
1765064530558,-0.2353596,-8.590625399999999,0.784532
1765064530599,-0.6276256,-8.2768126,1.0983448
1765064530605,-0.5099458,-8.1199062,1.2552512
1765064530611,-0.5099458,-8.1199062,1.2552512
1765064530617,-0.2353596,-7.9237732,1.0983448
1765064530623,-0.0784532,-8.316039199999999,1.1767979999999998
1765064530629,-0.0784532,-8.316039199999999,1.1767979999999998
1765064530635,-0.3530394,-9.1005712,1.2160246
1765064530641,-0.3530394,-9.1005712,1.2160246
1765064530647,-0.5099458,-9.7281968,1.2552512
1765064530653,-1.0983448,-9.571290399999999,0.9414384
1765064530659,-1.0983448,-9.571290399999999,0.9414384
1765064530665,-0.2745862,-10.591182,1.1767979999999998
1765064530671,-0.2745862,-10.591182,1.1767979999999998
1765064530677,-0.0784532,-10.7088618,1.2944778
1765064530683,-0.0784532,-10.7088618,1.2944778
1765064530689,-0.2745862,-9.649743599999999,1.1767979999999998
1765064530695,-0.0784532,-9.414383999999998,1.4513842
1765064530701,-0.0784532,-9.414383999999998,1.4513842
1765064530707,-0.1176798,-9.2574776,1.4513842
1765064530713,-0.1176798,-9.2574776,1.4513842
1765064530754,-0.2353596,-8.316039199999999,1.0591182
1765064530760,0.196133,-8.5513988,1.0591182
1765064530766,0.0784532,-8.669078599999999,1.2552512
1765064530772,0.0784532,-8.669078599999999,1.2552512
1765064530778,-0.5883989999999999,-8.9436648,1.5298374
1765064530784,-0.5883989999999999,-8.9436648,1.5298374
1765064530790,-0.8629851999999999,-8.669078599999999,1.4513842
1765064530796,-1.0983448,-8.669078599999999,1.4906107999999998
1765064530802,-1.0983448,-8.669078599999999,1.4906107999999998
1765064530808,-1.4513842,-8.8652116,1.4513842
1765064530814,-1.4513842,-8.8652116,1.4513842
1765064530820,-0.7060788,-9.2967042,1.3729310000000001
1765064530826,-0.5099458,-9.80665,1.5298374
1765064530832,-0.5099458,-9.80665,1.5298374
1765064530838,-0.9414384,-9.3359308,1.4906107999999998
1765064530845,-0.9414384,-9.3359308,1.4906107999999998
1765064530851,-1.2944778,-8.825985,1.4121576
1765064530857,-1.6082906,-8.9828914,1.4513842
1765064530863,-1.6082906,-8.9828914,1.4513842
1765064530869,-0.8629851999999999,-9.2574776,1.4121576
1765064530910,-0.5099458,-8.5121722,1.2160246
1765064530916,-0.5099458,-8.5121722,1.2160246
1765064530922,-1.1375714,-8.2768126,1.2944778
1765064530928,-0.7060788,-8.9436648,1.4906107999999998
1765064530934,-0.7060788,-8.9436648,1.4906107999999998
1765064530940,-0.0392266,-9.2574776,1.6867438000000001
1765064530946,-0.0392266,-9.2574776,1.6867438000000001
1765064530952,-0.784532,-8.669078599999999,1.4513842
1765064530958,-1.2944778,-9.4536106,1.4906107999999998
1765064530964,-1.2944778,-9.4536106,1.4906107999999998
1765064530970,-1.1375714,-10.0420096,1.4513842
1765064530976,-1.1375714,-10.0420096,1.4513842
1765064530982,-1.3337044,-9.80665,1.1767979999999998
1765064530988,-1.3337044,-9.2967042,1.0983448
1765064530994,-1.3337044,-9.2967042,1.0983448
1765064531000,-0.5883989999999999,-9.571290399999999,1.2944778
1765064531006,-0.5883989999999999,-9.571290399999999,1.2944778
1765064531012,-0.2353596,-9.3751574,1.4513842
1765064531018,-0.2353596,-9.3751574,1.4513842
1765064531024,-0.5491724,-8.394492399999999,1.2552512
1765064531064,-0.5491724,-8.8652116,1.0591182
1765064531070,-0.2745862,-9.3359308,1.2160246
1765064531076,-0.2745862,-9.3359308,1.2160246
1765064531082,-0.3530394,-9.3751574,1.2944778
1765064531088,-0.3530394,-9.3751574,1.2944778
1765064531094,-0.4707192,-8.825985,1.3337044
1765064531100,-0.5099458,-8.433719,1.3729310000000001
1765064531106,-0.5099458,-8.433719,1.3729310000000001
1765064531112,-0.43149259999999995,-7.8845466,1.1767979999999998
1765064531118,-0.43149259999999995,-7.8845466,1.1767979999999998
1765064531124,0.0,-8.1983594,1.1375714
1765064531130,0.0,-8.1983594,1.1375714
1765064531136,0.2353596,-8.9044382,1.1375714
1765064531142,-0.5491724,-8.9044382,1.0983448
1765064531148,-0.5491724,-8.9044382,1.0983448
1765064531154,-0.9414384,-9.649743599999999,1.1767979999999998
1765064531160,-0.9414384,-9.649743599999999,1.1767979999999998
1765064531166,-1.4513842,-9.610517,1.3729310000000001
1765064531172,-2.3535959999999996,-8.316039199999999,1.1767979999999998
