timestamp_ms,ax,ay,az
1765064612097,-0.3530394,-9.3751574,1.765197
1765064612138,0.8237586,-9.492837199999999,1.2944778
1765064612144,0.392266,-9.2574776,1.4121576
1765064612150,0.392266,-9.2574776,1.4121576
1765064612156,0.0392266,-8.9828914,1.0198916
1765064612162,-0.0784532,-9.5320638,0.980665
1765064612168,-0.0784532,-9.5320638,0.980665
1765064612174,0.3530394,-11.2188076,1.4906107999999998
1765064612180,0.3530394,-11.2188076,1.4906107999999998
1765064612186,0.9022117999999999,-10.787315,1.4121576
1765064612192,0.9022117999999999,-10.787315,1.4121576
1765064612198,0.5491724,-10.3558224,1.2552512
1765064612204,0.392266,-10.2381426,1.2944778
1765064612210,0.392266,-10.2381426,1.2944778
1765064612216,0.196133,-9.845876599999999,0.9022117999999999
1765064612222,0.196133,-9.845876599999999,0.9022117999999999
1765064612228,0.43149259999999995,-9.9635564,1.0591182
1765064612234,0.7453053999999999,-9.414383999999998,0.9022117999999999
1765064612240,0.7453053999999999,-9.414383999999998,0.9022117999999999
1765064612246,0.2353596,-9.2574776,1.0198916
1765064612252,0.2353596,-9.2574776,1.0198916
1765064612293,0.0784532,-10.9442214,1.5298374
1765064612299,0.0392266,-11.0226746,1.4513842
1765064612305,0.1569064,-11.0226746,1.0983448
1765064612311,0.1569064,-11.0226746,1.0983448
1765064612317,0.6276256,-11.846433199999998,1.0983448
1765064612323,0.6276256,-11.846433199999998,1.0983448
1765064612329,0.980665,-12.4740588,1.0983448
1765064612335,0.9022117999999999,-12.3171524,0.8629851999999999
1765064612341,0.9022117999999999,-12.3171524,0.8629851999999999
1765064612347,1.2160246,-12.2386992,0.7453053999999999
1765064612353,1.2160246,-12.2386992,0.7453053999999999
1765064612359,1.9221034,-12.5132854,0.7060788
1765064612365,1.4906107999999998,-11.2972608,0.4707192
1765064612371,1.4906107999999998,-11.2972608,0.4707192
1765064612377,1.3729310000000001,-10.002782999999999,0.2353596
1765064612383,1.3729310000000001,-10.002782999999999,0.2353596
1765064612389,1.0198916,-9.845876599999999,0.2745862
1765064612395,1.0198916,-9.845876599999999,0.2745862
1765064612401,-0.0784532,-9.1790244,0.2745862
1765064612407,-0.5491724,-8.7867584,0.3138128
1765064612448,-0.7453053999999999,-9.924329799999999,0.6276256
1765064612454,-0.7453053999999999,-9.924329799999999,0.6276256
1765064612460,-0.392266,-10.4735022,0.6276256
1765064612466,-0.392266,-10.4735022,0.6276256
1765064612472,-0.0392266,-10.983448000000001,0.4707192
1765064612478,0.2745862,-11.1403544,0.392266
1765064612484,0.2745862,-11.1403544,0.392266
1765064612490,0.3138128,-11.179581,0.3138128
1765064612496,0.3138128,-11.179581,0.3138128
1765064612502,0.5883989999999999,-10.8265416,0.3530394
1765064612508,0.6668522,-10.002782999999999,0.1569064
1765064612514,0.6668522,-10.002782999999999,0.1569064
1765064612520,0.6668522,-9.6889702,0.1569064
1765064612526,0.6668522,-9.6889702,0.1569064
1765064612532,0.784532,-9.1397978,0.0784532
1765064612538,0.784532,-9.1397978,0.0784532
1765064612544,0.5883989999999999,-8.433719,-0.0392266
1765064612550,0.7453053999999999,-9.3751574,0.0392266
1765064612556,0.7453053999999999,-9.3751574,0.0392266
1765064612562,0.7453053999999999,-10.4342756,0.392266
1765064612602,0.0,-9.414383999999998,0.3138128
1765064612608,0.0,-9.414383999999998,0.3138128
1765064612614,-0.0392266,-10.002782999999999,0.392266
1765064612620,-0.1176798,-10.1204628,0.43149259999999995
1765064612626,-0.1176798,-10.1204628,0.43149259999999995
1765064612632,0.1176798,-10.2381426,0.3530394
1765064612638,0.1176798,-10.2381426,0.3530394
1765064612644,0.2745862,-10.5127288,0.3138128
1765064612650,0.0392266,-10.1596894,0.3530394
1765064612656,0.0392266,-10.1596894,0.3530394
1765064612662,-0.3138128,-9.610517,0.5099458
1765064612668,-0.3138128,-9.610517,0.5099458
1765064612674,-0.4707192,-9.218251,0.5883989999999999
1765064612680,-0.2745862,-9.492837199999999,0.7060788
1765064612686,-0.2745862,-9.492837199999999,0.7060788
1765064612692,-0.0392266,-9.414383999999998,0.5491724
1765064612698,-0.0392266,-9.414383999999998,0.5491724
1765064612704,0.2353596,-9.610517,0.5883989999999999
1765064612710,0.2353596,-9.610517,0.5883989999999999
1765064612716,0.5491724,-9.8851032,0.4707192
1765064612758,-0.1176798,-9.845876599999999,0.6276256
1765064612764,-0.0392266,-9.9635564,0.6276256
1765064612770,-0.0392266,-9.9635564,0.6276256
1765064612776,-0.0392266,-10.1204628,0.6276256
1765064612782,-0.0392266,-10.1204628,0.6276256
1765064612788,0.0,-10.1204628,0.6276256
1765064612794,0.0784532,-10.7088618,0.9022117999999999
1765064612800,0.0784532,-10.7088618,0.9022117999999999
1765064612806,0.0784532,-10.787315,0.8629851999999999
1765064612812,0.0784532,-10.787315,0.8629851999999999
1765064612818,0.0784532,-9.571290399999999,0.43149259999999995
1765064612824,0.0784532,-9.3751574,0.5491724
1765064612830,0.0784532,-9.3751574,0.5491724
1765064612836,-0.1569064,-9.3359308,0.9022117999999999
1765064612842,-0.1569064,-9.3359308,0.9022117999999999
1765064612848,-0.3530394,-8.9436648,0.9414384
1765064612854,-0.43149259999999995,-8.9044382,0.8629851999999999
1765064612860,-0.43149259999999995,-8.9044382,0.8629851999999999
1765064612866,-0.1569064,-8.9828914,0.9022117999999999
1765064612872,-0.1569064,-8.9828914,0.9022117999999999
1765064612912,-0.5491724,-9.80665,1.2552512
1765064612918,-0.9022117999999999,-10.4342756,1.5298374
1765064612924,-0.7060788,-10.0420096,1.4906107999999998
1765064612930,-0.7060788,-10.0420096,1.4906107999999998
1765064612936,-0.5491724,-9.0613446,1.3729310000000001
1765064612942,-0.5491724,-9.0613446,1.3729310000000001
1765064612948,-0.1569064,-8.825985,1.3337044
1765064612954,-0.1569064,-8.825985,1.3337044
1765064612960,-0.1176798,-8.433719,1.4513842
1765064612966,-0.392266,-8.5121722,1.569064
1765064612972,-0.392266,-8.5121722,1.569064
1765064612978,-0.4707192,-8.669078599999999,1.6867438000000001
1765064612984,-0.4707192,-8.669078599999999,1.6867438000000001
1765064612990,-1.0198916,-8.0806796,1.6082906
1765064612996,-1.2160246,-7.9237732,1.8044235999999998
1765064613002,-1.2160246,-7.9237732,1.8044235999999998
1765064613008,-0.980665,-8.4729456,2.157463
1765064613014,-0.980665,-8.4729456,2.157463
1765064613020,-0.8629851999999999,-8.1983594,2.157463
1765064613026,-1.0198916,-7.9237732,2.1182364
1765064613067,-0.6668522,-7.7668668,2.0397832
1765064613073,-0.6668522,-7.7668668,2.0397832
1765064613079,-0.2745862,-9.3751574,2.4320492
1765064613085,-0.2745862,-9.3751574,2.4320492
1765064613091,-0.5099458,-8.7867584,2.2359162
1765064613097,-0.5883989999999999,-7.9237732,2.0397832
1765064613103,-0.5883989999999999,-7.9237732,2.0397832
1765064613109,-0.43149259999999995,-8.4729456,2.1966896
1765064613115,-0.43149259999999995,-8.4729456,2.1966896
1765064613121,-0.1569064,-8.7083052,2.2751428
1765064613127,-0.1569064,-8.7083052,2.2751428
1765064613133,-0.2745862,-8.433719,2.3143694
1765064613139,-0.2745862,-7.9629998,2.1966896
1765064613145,-0.2745862,-7.9629998,2.1966896
1765064613151,-0.5491724,-7.3353741999999995,2.0790097999999997
1765064613157,-0.5491724,-7.3353741999999995,2.0790097999999997
1765064613163,-0.5491724,-7.6491869999999995,2.0790097999999997
1765064613169,-1.0198916,-7.7668668,2.0790097999999997
1765064613175,-1.0198916,-7.7668668,2.0790097999999997
1765064613181,-0.8629851999999999,-7.4138274,2.0790097999999997
1765064613223,-1.8044235999999998,-8.0806796,2.4712758
1765064613229,-1.8044235999999998,-8.0806796,2.4712758
1765064613235,-1.7259703999999998,-7.9237732,2.4320492
1765064613241,-1.7259703999999998,-8.8652116,2.4712758
1765064613247,-1.7259703999999998,-8.8652116,2.4712758
1765064613253,-1.569064,-8.7083052,2.4712758
1765064613259,-1.569064,-8.7083052,2.4712758
1765064613265,-1.2944778,-9.1397978,2.5105024
1765064613271,-1.2552512,-9.4536106,2.5105024
1765064613277,-1.2552512,-9.4536106,2.5105024
1765064613283,-0.9022117999999999,-9.1005712,2.2751428
1765064613289,-0.9022117999999999,-9.1005712,2.2751428
1765064613295,-0.7060788,-9.2574776,2.0005566
1765064613301,-0.0784532,-8.747531799999999,1.9221034
1765064613307,-0.0784532,-8.747531799999999,1.9221034
1765064613313,0.1569064,-8.825985,2.0005566
1765064613319,0.1569064,-8.825985,2.0005566
1765064613325,-0.43149259999999995,-9.4536106,2.3143694
1765064613331,-0.43149259999999995,-9.4536106,2.3143694
1765064613337,-0.8629851999999999,-9.1005712,2.3535959999999996
1765064613377,-0.5099458,-10.2381426,2.3928225999999997
1765064613383,-0.7453053999999999,-9.9635564,2.3535959999999996
1765064613389,-0.7453053999999999,-9.9635564,2.3535959999999996
1765064613395,-0.5883989999999999,-10.1204628,2.3535959999999996
1765064613401,-0.5883989999999999,-10.1204628,2.3535959999999996
1765064613407,-0.4707192,-10.0812362,2.3143694
1765064613413,-0.6276256,-8.9044382,2.0790097999999997
1765064613419,-0.6276256,-8.9044382,2.0790097999999997
1765064613425,-0.3530394,-8.669078599999999,2.0790097999999997
1765064613431,-0.3530394,-8.669078599999999,2.0790097999999997
1765064613437,-0.392266,-9.6889702,2.2359162
1765064613443,-0.8237586,-9.2574776,2.3143694
1765064613449,-0.8237586,-9.2574776,2.3143694
1765064613455,-0.9022117999999999,-8.4729456,2.157463
1765064613461,-0.9022117999999999,-8.4729456,2.157463
1765064613467,-0.4707192,-8.9436648,2.3143694
1765064613473,-0.4707192,-8.9436648,2.3143694
1765064613479,-0.6668522,-9.80665,2.3928225999999997
1765064613485,-0.6276256,-9.1790244,2.0790097999999997
1765064613491,-0.6276256,-9.1790244,2.0790097999999997
1765064613532,-0.784532,-9.649743599999999,2.3143694
1765064613538,-0.8237586,-9.492837199999999,2.2359162
1765064613544,-0.8237586,-9.492837199999999,2.2359162
1765064613550,-0.784532,-9.2967042,2.157463
1765064613556,-0.0392266,-9.4536106,2.2359162
1765064613562,-0.0392266,-9.4536106,2.2359162
1765064613568,0.0,-9.2574776,2.2359162
1765064613574,0.0,-9.2574776,2.2359162
1765064613580,-0.5491724,-8.5513988,2.1966896
1765064613586,-0.7060788,-8.5121722,2.0005566
1765064613592,-0.7060788,-8.5121722,2.0005566
1765064613598,-0.9414384,-8.825985,2.0397832
1765064613604,-0.9414384,-8.825985,2.0397832
1765064613610,-0.196133,-9.0613446,2.2359162
1765064613616,-0.5099458,-9.610517,2.4712758
1765064613622,-0.5099458,-9.610517,2.4712758
1765064613628,-1.1767979999999998,-9.1790244,2.4320492
1765064613634,-1.1767979999999998,-9.1790244,2.4320492
1765064613640,-1.0198916,-9.1397978,2.5105024
